File: DSC/Crystallisation samples/Nozzle 1 mm/0 Degrees/LH01_0D_N1/Test 1.csv
Temperature,Heat Flow
30.05,8.5975
30.07,8.6628
30.14,9.0847
30.24,9.3716
30.36,9.3523
30.49,9.2092
30.63,9.1289
30.76,9.1767
30.9,9.3324
31.03,9.5405
31.16,9.7605
31.29,9.9695
31.42,10.1561
31.56,10.3124
31.69,10.4427
31.82,10.5457
31.95,10.6286
32.09,10.699
32.22,10.7586
32.35,10.8067
32.49,10.8467
32.63,10.8747
32.76,10.8969
32.89,10.9179
33.02,10.9365
33.15,10.9522
33.29,10.9665
33.42,10.9744
33.55,10.9802
33.69,10.9872
33.82,10.9948
33.95,11.0025
34.08,11.0091
34.22,11.0095
34.35,11.0098
34.49,11.0134
34.61,11.0187
34.75,11.0243
34.88,11.0272
35.01,11.0263
35.15,11.0265
35.28,11.0294
35.42,11.0321
35.54,11.0354
35.68,11.0351
35.81,11.0329
35.95,11.0333
36.08,11.0354
36.22,11.0391
36.34,11.0442
36.48,11.045
36.62,11.045
36.75,11.0468
36.88,11.0497
37.02,11.0537
37.15,11.0574
37.27,11.0567
37.41,11.0549
37.54,11.0568
37.68,11.0602
37.81,11.0638
37.95,11.0658
38.08,11.0648
38.21,11.0637
38.34,11.0647
38.48,11.0675
38.61,11.0721
38.74,11.0729
38.88,11.072
39.01,11.0728
39.14,11.0754
39.27,11.0798
39.41,11.0838
39.55,11.0833
39.68,11.0804
39.81,11.0811
39.94,11.0835
40.08,11.0869
40.21,11.0874
40.34,11.0856
40.48,11.0847
40.61,11.0871
40.74,11.089
40.88,11.0928
41,11.0936
41.14,11.0916
41.27,11.0913
41.4,11.0934
41.54,11.0957
41.67,11.099
41.81,11.0973
41.93,11.0944
42.07,11.0946
42.2,11.0967
42.34,11.0992
42.47,11.1005
42.6,11.0985
42.74,11.0966
42.87,11.0976
43,11.0985
43.14,11.102
43.27,11.1011
43.4,11.0994
43.53,11.1002
43.67,11.103
43.8,11.1068
43.93,11.1084
44.07,11.1064
44.2,11.1035
44.33,11.1038
44.47,11.1064
44.59,11.1112
44.73,11.1122
44.86,11.1095
44.99,11.1079
45.13,11.1094
45.26,11.1124
45.4,11.1151
45.53,11.1126
45.66,11.1112
45.8,11.113
45.93,11.1158
46.06,11.1191
46.2,11.1196
46.33,11.1179
46.46,11.1172
46.59,11.1201
46.73,11.1248
46.86,11.1286
46.99,11.1275
47.13,11.1257
47.26,11.1268
47.4,11.1304
47.53,11.1357
47.66,11.1365
47.8,11.1359
47.93,11.1369
48.06,11.1405
48.2,11.1443
48.33,11.1481
48.46,11.147
48.6,11.1463
48.73,11.1485
48.86,11.1517
48.99,11.157
49.13,11.1602
49.26,11.1592
49.4,11.1594
49.53,11.1636
49.66,11.1692
49.79,11.1722
49.93,11.1714
50.06,11.1716
50.2,11.1734
50.33,11.1774
50.46,11.183
50.59,11.183
50.73,11.1808
50.86,11.1815
50.99,11.1884
51.13,11.1975
51.26,11.2029
51.4,11.2045
51.52,11.2056
51.66,11.2111
51.79,11.2187
51.92,11.2253
52.05,11.2284
52.19,11.2347
52.32,11.2431
52.46,11.2517
52.59,11.2623
52.73,11.2706
52.85,11.2755
52.99,11.2799
53.13,11.2872
53.25,11.2987
53.39,11.3105
53.52,11.316
53.66,11.3192
53.79,11.323
53.92,11.328
54.05,11.3335
54.19,11.3356
54.32,11.3374
54.45,11.339
54.58,11.3411
54.72,11.3438
54.85,11.3452
54.99,11.3457
55.11,11.3491
55.24,11.3555
55.38,11.3664
55.52,11.3748
55.65,11.3741
55.79,11.3728
55.92,11.3756
56.05,11.3806
56.18,11.3866
56.32,11.3899
56.45,11.3944
56.59,11.4007
56.72,11.4085
56.85,11.4149
56.98,11.3709
57.12,11.3265
57.25,11.3177
57.39,11.3336
57.52,11.362
57.65,11.3914
57.78,11.4166
57.92,11.4412
58.05,11.4668
58.18,11.4933
58.32,11.5188
58.45,11.5392
58.59,11.5595
58.72,11.5813
58.85,11.6045
58.98,11.626
59.11,11.6415
59.25,11.6577
59.38,11.6793
59.52,11.7037
59.65,11.7305
59.78,11.7551
59.92,11.7794
60.05,11.8133
60.18,11.8473
60.32,11.8737
60.45,11.8882
60.58,11.8923
60.72,11.8926
60.84,11.8898
60.98,11.8826
61.12,11.8684
61.25,11.8494
61.38,11.8356
61.52,11.8309
61.65,11.8281
61.78,11.823
61.92,11.8131
62.05,11.8052
62.18,11.7994
62.31,11.7972
62.44,11.7992
62.58,11.7922
62.72,11.7752
62.84,11.7591
62.98,11.7502
63.11,11.7519
63.24,11.755
63.38,11.7529
63.52,11.7499
63.65,11.7454
63.78,11.7398
63.91,11.7297
64.05,11.7096
64.18,11.6886
64.31,11.6712
64.45,11.6623
64.58,11.6589
64.72,11.6509
64.84,11.6425
64.98,11.6387
65.11,11.6322
65.25,11.6182
65.38,11.5916
65.51,11.565
65.65,11.5415
65.78,11.5074
65.92,11.5018
66.05,11.5192
66.18,11.5456
66.31,11.5694
66.45,11.5896
66.58,11.6155
66.72,11.6399
66.85,11.6511
66.98,11.6525
67.12,11.6503
67.25,11.6571
67.38,11.6733
67.52,11.6938
67.64,11.715
67.78,11.7274
67.92,11.7441
68.05,11.7586
68.18,11.7707
68.32,11.7948
68.45,11.8393
68.58,11.8834
68.71,11.9011
68.84,11.8923
68.98,11.869
69.12,11.8455
69.25,11.8335
69.38,11.826
69.51,11.8092
69.64,11.7843
69.78,11.7682
69.91,11.7673
70.05,11.7739
70.18,11.783
70.32,11.7938
70.45,11.7965
70.58,11.7908
70.71,11.7751
70.84,11.7589
70.98,11.7465
71.11,11.7399
71.25,11.7425
71.38,11.7321
71.51,11.7171
71.64,11.7074
71.78,11.7048
71.91,11.7186
72.05,11.749
72.18,11.7821
72.31,11.8083
72.45,11.8313
72.58,11.8516
72.71,11.8664
72.85,11.8673
72.98,11.8589
73.12,11.8503
73.25,11.8511
73.38,11.8615
73.51,11.8754
73.64,11.8866
73.78,11.8948
73.92,11.9015
74.05,11.9047
74.18,11.901
74.32,11.8906
74.45,11.8728
74.58,11.8562
74.71,11.8609
74.85,11.8754
74.98,11.8894
75.11,11.8988
75.25,11.9052
75.38,11.9095
75.52,11.907
75.65,11.9041
75.78,11.9059
75.92,11.9093
76.05,11.9101
76.18,11.9082
76.32,11.9092
76.45,11.9116
76.58,11.914
76.72,11.9145
76.85,11.9116
76.98,11.9078
77.12,11.9053
77.25,11.9064
77.38,11.9087
77.52,11.907
77.65,11.9037
77.78,11.9029
77.92,11.905
78.05,11.9046
78.18,11.9031
78.32,11.9032
78.45,11.9026
78.58,11.9015
78.72,11.903
78.84,11.9004
78.98,11.8969
79.12,11.8962
79.25,11.8945
79.39,11.8907
79.52,11.8889
79.65,11.889
79.78,11.8872
79.92,11.8858
80.05,11.8866
80.18,11.8849
80.31,11.8834
80.45,11.8836
80.58,11.8826
80.71,11.8822
80.84,11.8845
80.98,11.8816
81.11,11.8767
81.25,11.8756
81.38,11.8736
81.51,11.8713
81.64,11.8724
81.78,11.8708
81.91,11.8681
82.04,11.8681
82.17,11.865
82.31,11.8561
82.44,11.8505
82.57,11.8455
82.71,11.8387
82.84,11.8341
82.98,11.83
83.11,11.8241
83.24,11.823
83.37,11.8257
83.5,11.8268
83.64,11.8257
83.77,11.8252
83.91,11.8222
84.03,11.8208
84.17,11.8187
84.3,11.8134
84.44,11.8088
84.57,11.8066
84.7,11.7951
84.83,11.7827
84.97,11.7787
85.1,11.7747
85.24,11.7707
85.37,11.7686
85.5,11.7652
85.63,11.7628
85.76,11.7621
85.9,11.7584
86.03,11.7524
86.16,11.7494
86.3,11.7453
86.43,11.7378
86.56,11.7324
86.7,11.7283
86.83,11.72
86.96,11.7128
87.09,11.709
87.23,11.7038
87.36,11.697
87.49,11.6905
87.62,11.6839
87.76,11.6779
87.89,11.6719
88.03,11.6631
88.16,11.6557
88.29,11.651
88.42,11.6431
88.56,11.6329
88.69,11.6253
88.83,11.6153
88.95,11.606
89.09,11.6006
89.22,11.5934
89.35,11.5872
89.49,11.5823
89.62,11.5721
89.75,11.5613
89.89,11.5547
90.02,11.5475
90.15,11.541
90.29,11.5436
90.42,11.5501
90.55,11.5465
90.68,11.5416
90.82,11.5387
90.95,11.5309
91.08,11.5187
91.22,11.5035
91.35,11.4853
91.49,11.4673
91.62,11.4476
91.75,11.4234
91.88,11.4018
92.02,11.385
92.15,11.3678
92.28,11.3567
92.42,11.3524
92.55,11.3447
92.68,11.3335
92.82,11.3207
92.95,11.3042
93.09,11.2885
93.22,11.2811
93.35,11.2858
93.48,11.2928
93.62,11.296
93.75,11.2888
93.89,11.2742
94.02,11.271
94.15,11.2643
94.29,11.2518
94.42,11.2379
94.55,11.2274
94.68,11.2184
94.82,11.2084
94.95,11.1942
95.09,11.1776
95.22,11.1631
95.35,11.1475
95.48,11.1293
95.62,11.1173
95.75,11.1072
95.88,11.096
96.02,11.0876
96.15,11.0806
96.28,11.0705
96.41,11.0615
96.55,11.0541
96.68,11.0447
96.82,11.0357
96.95,11.026
97.08,11.0142
97.21,11.0054
97.34,10.9976
97.48,10.9866
97.61,10.977
97.75,10.9683
97.88,10.9577
98.01,10.9493
98.14,10.9426
98.28,10.9327
98.41,10.9237
98.54,10.9175
98.67,10.9082
98.8,10.8985
98.94,10.8897
99.08,10.8786
99.2,10.8691
99.34,10.8626
99.48,10.855
99.6,10.8492
99.74,10.8454
99.87,10.8382
100,10.8321
100.13,10.8264
100.27,10.8161
100.4,10.8046
100.53,10.7982
100.67,10.7915
100.8,10.7854
100.94,10.7814
101.07,10.7756
101.2,10.7688
101.33,10.7649
101.47,10.7603
101.6,10.7567
101.74,10.7553
101.87,10.7505
102,10.7448
102.14,10.7443
102.27,10.7413
102.4,10.7368
102.54,10.7342
102.67,10.732
102.8,10.7286
102.93,10.7286
103.06,10.7271
103.2,10.7245
103.33,10.7256
103.47,10.7258
103.6,10.7238
103.73,10.724
103.86,10.7232
104,10.7211
104.13,10.7232
104.26,10.7252
104.4,10.7264
104.53,10.7287
104.66,10.7311
104.8,10.7324
104.92,10.7353
105.07,10.7377
105.2,10.7396
105.33,10.7452
105.46,10.7514
105.59,10.754
105.73,10.7591
105.86,10.7631
105.99,10.7655
106.13,10.772
106.26,10.7793
106.39,10.7846
106.53,10.7912
106.66,10.7998
106.79,10.8045
106.93,10.8107
107.06,10.8198
107.19,10.8286
107.33,10.8368
107.45,10.8457
107.59,10.853
107.72,10.8603
107.85,10.8695
107.99,10.8763
108.12,10.8826
108.25,10.8922
108.38,10.9008
108.52,10.9126
108.65,10.9243
108.79,10.9327
108.92,10.9407
109.05,10.9511
109.19,10.9591
109.32,10.9709
109.45,10.9824
109.58,10.9904
109.72,11.0016
109.85,11.0123
109.99,11.0207
110.12,11.0317
110.25,11.0429
110.38,11.0539
110.52,11.0656
110.65,11.0774
110.79,11.0863
110.92,11.0984
111.05,11.1115
111.18,11.1198
111.32,11.1293
111.45,11.1423
111.58,11.1526
111.72,11.1644
111.85,11.1754
111.98,11.1841
112.12,11.1943
112.25,11.206
112.38,11.2153
112.52,11.2252
112.65,11.2379
112.78,11.2485
112.92,11.2576
113.05,11.2674
113.19,11.275
113.32,11.2857
113.45,11.2971
113.58,11.3059
113.72,11.3181
113.85,11.3292
113.98,11.3384
114.12,11.3482
114.25,11.3595
114.38,11.3665
114.51,11.3765
114.65,11.3874
114.78,11.3937
114.92,11.4013
115.05,11.4098
115.18,11.4167
115.31,11.4278
115.45,11.4363
115.58,11.4425
115.71,11.4516
115.85,11.4617
115.98,11.4686
116.11,11.478
116.25,11.4855
116.38,11.4923
116.51,11.4998
116.65,11.5084
116.78,11.5155
116.91,11.5239
117.04,11.5316
117.18,11.5382
117.31,11.5474
117.44,11.5545
117.58,11.5605
117.7,11.5685
117.84,11.5762
117.98,11.5837
118.11,11.5933
118.24,11.5999
118.37,11.6032
118.51,11.6128
118.64,11.617
118.78,11.6194
118.91,11.6256
119.04,11.63
119.18,11.6333
119.31,11.6417
119.44,11.6491
119.58,11.6533
119.71,11.6587
119.85,11.6623
119.98,11.6682
120.11,11.6776
120.24,11.6817
120.38,11.6852
120.51,11.6911
120.64,11.694
120.78,11.6969
120.91,11.7013
121.04,11.7051
121.18,11.7113
121.3,11.726
121.44,11.7402
121.58,11.7542
121.71,11.7739
121.84,11.7878
121.98,11.795
122.11,11.7971
122.24,11.7947
122.37,11.7918
122.51,11.7897
122.64,11.7853
122.78,11.7824
122.9,11.7837
123.04,11.7856
123.18,11.7931
123.3,11.8021
123.44,11.808
123.57,11.8149
123.7,11.8211
123.84,11.8245
123.97,11.829
124.1,11.8303
124.24,11.8308
124.38,11.835
124.5,11.8381
124.63,11.8385
124.78,11.8429
124.9,11.8459
125.03,11.8468
125.17,11.8489
125.3,11.8507
125.44,11.8535
125.57,11.8596
125.7,11.8622
125.83,11.8642
125.97,11.8709
126.1,11.8753
126.23,11.8767
126.37,11.8796
126.5,11.8808
126.63,11.8825
126.76,11.8866
126.9,11.8899
127.03,11.8938
127.17,11.8983
127.3,11.8989
127.43,11.9017
127.57,11.9073
127.7,11.9101
127.83,11.9133
127.97,11.9188
128.1,11.9204
128.23,11.9241
128.37,11.9295
128.5,11.9339
128.63,11.9384
128.77,11.9437
128.9,11.9459
129.03,11.9499
129.17,11.9552
129.3,11.9564
129.44,11.9592
129.57,11.9624
129.7,11.9654
129.83,11.9712
129.97,11.9743
130.1,11.9757
130.23,11.9811
130.37,11.9867
130.5,11.9896
130.63,11.9945
130.77,11.9986
130.9,12.0019
131.03,12.0051
131.17,12.0068
131.3,12.0096
131.43,12.0163
131.57,12.0188
131.69,12.0203
131.83,12.025
131.97,12.03
132.1,12.0344
132.23,12.0395
132.37,12.0432
132.5,12.0479
132.63,12.0526
132.76,12.0616
132.9,12.0668
133.03,12.0691
133.17,12.0683
133.3,12.0713
133.43,12.0765
133.57,12.0796
133.7,12.0848
133.85,12.0879
133.97,12.0903
134.1,12.0966
134.23,12.1011
134.37,12.1029
134.5,12.109
134.63,12.1134
134.77,12.116
134.9,12.1213
135.03,12.1241
135.17,12.1264
135.3,12.1335
135.43,12.1369
135.57,12.1408
135.69,12.1479
135.83,12.1505
135.96,12.1539
136.1,12.1601
136.23,12.1651
136.36,12.1722
136.5,12.1772
136.63,12.1816
136.76,12.1881
136.9,12.1936
137.03,12.196
137.16,12.2033
137.29,12.2108
137.43,12.2154
137.56,12.2223
137.7,12.2289
137.83,12.2355
137.97,12.2453
138.1,12.2512
138.23,12.2541
138.36,12.2609
138.5,12.2665
138.63,12.2697
138.76,12.2774
138.9,12.2821
139.03,12.2882
139.17,12.2971
139.3,12.3032
139.43,12.3101
139.57,12.3194
139.7,12.3251
139.83,12.3327
139.97,12.3411
140.1,12.3497
140.23,12.3592
140.37,12.3654
140.5,12.3723
140.63,12.385
140.77,12.3971
140.9,12.4052
141.04,12.4143
141.16,12.4235
141.3,12.4341
141.44,12.4423
141.57,12.4547
141.7,12.4652
141.83,12.4763
141.97,12.4866
142.1,12.496
142.23,12.508
142.36,12.519
142.5,12.5302
142.63,12.5382
142.76,12.5497
142.9,12.5601
143.03,12.5734
143.17,12.5877
143.3,12.6032
143.43,12.6162
143.56,12.6271
143.69,12.6421
143.83,12.6558
143.96,12.6723
144.09,12.6864
144.22,12.7053
144.35,12.7237
144.49,12.7438
144.63,12.7607
144.76,12.7774
144.89,12.7972
145.03,12.816
145.15,12.8366
145.29,12.8583
145.42,12.8833
145.55,12.9047
145.69,12.9258
145.82,12.9485
145.95,12.9735
146.09,13.0003
146.22,13.0287
146.35,13.0602
146.49,13.091
146.62,13.1245
146.75,13.1546
146.88,13.1903
147.02,13.2265
147.15,13.2649
147.28,13.2997
147.42,13.3387
147.55,13.3816
147.68,13.4238
147.81,13.466
147.95,13.508
148.08,13.5535
148.21,13.5987
148.35,13.6454
148.48,13.6905
148.61,13.7378
148.75,13.7842
148.88,13.8288
149.01,13.8722
149.15,13.9162
149.28,13.9611
149.41,14.0013
149.55,14.0429
149.68,14.0814
149.81,14.1202
149.94,14.1548
150.08,14.1897
150.21,14.2235
150.34,14.257
150.47,14.2896
150.6,14.3201
150.74,14.3525
150.88,14.3829
151,14.4106
151.14,14.4342
151.28,14.4581
151.4,14.4787
151.54,14.4996
151.67,14.5172
151.81,14.5368
151.94,14.5546
152.07,14.5685
152.2,14.578
152.34,14.5827
152.47,14.5896
152.6,14.5907
152.74,14.5961
152.87,14.5974
153,14.5904
153.13,14.5823
153.27,14.5782
153.4,14.575
153.53,14.5762
153.67,14.5784
153.8,14.5755
153.93,14.5708
154.06,14.5626
154.2,14.5517
154.33,14.5343
154.46,14.5157
154.6,14.4901
154.72,14.456
154.86,14.409
155,14.3578
155.13,14.3045
155.26,14.24
155.39,14.1665
155.53,14.0858
155.66,14.0028
155.79,13.912
155.93,13.8169
156.06,13.7195
156.19,13.6236
156.33,13.5253
156.46,13.423
156.59,13.3217
156.73,13.2234
156.86,13.1273
157,13.0289
157.13,12.9333
157.26,12.8397
157.39,12.7551
157.53,12.6721
157.66,12.5955
157.8,12.5265
157.93,12.4643
158.06,12.4069
158.19,12.3563
158.33,12.3179
158.46,12.2854
158.6,12.2583
158.72,12.2318
158.86,12.2119
159,12.1942
159.13,12.179
159.26,12.1633
159.39,12.1515
159.53,12.1414
159.66,12.1321
159.79,12.124
159.93,12.1168
160.06,12.1121
160.19,12.1069
160.33,12.103
160.46,12.0988
160.59,12.096
160.73,12.0903
160.86,12.086
160.99,12.0825
161.12,12.0821
161.26,12.0804
161.39,12.0757
161.53,12.0738
161.66,12.0757
161.79,12.0785
161.92,12.077
162.06,12.0788
162.19,12.0805
162.33,12.0844
162.45,12.0825
162.59,12.081
162.72,12.0822
162.86,12.0882
162.99,12.0893
163.13,12.0857
163.26,12.0828
163.39,12.0822
163.53,12.0852
163.66,12.0857
163.8,12.0859
163.93,12.0855
164.06,12.0899
164.19,12.0929
164.33,12.0942
164.46,12.094
164.59,12.0956
164.72,12.0964
164.86,12.0972
164.99,12.0971
165.12,12.0964
165.25,12.0943
165.39,12.0928
165.53,12.0944
165.66,12.0917
165.79,12.0916
165.93,12.091
166.06,12.092
166.19,12.0915
166.32,12.0932
166.46,12.0937
166.59,12.0938
166.72,12.0952
166.86,12.0952
166.99,12.0955
167.13,12.0928
167.25,12.0934
167.39,12.0936
167.52,12.0962
167.65,12.0957
167.79,12.0964
167.92,12.0956
168.05,12.0975
168.19,12.097
168.32,12.097
168.45,12.0978
168.58,12.0992
168.72,12.1025
168.85,12.1045
168.99,12.1064
169.12,12.1083
169.25,12.1119
169.38,12.1107
169.52,12.1121
169.65,12.113
169.78,12.1156
169.92,12.1152
170.05,12.1149
170.19,12.116
170.32,12.1177
170.45,12.1184
170.58,12.1176
170.71,12.1195
170.85,12.1192
170.98,12.121
171.11,12.1213
171.25,12.1222
171.38,12.1214
171.51,12.1237
171.65,12.1254
171.78,12.1284
171.91,12.1307
172.05,12.133
172.18,12.1344
172.31,12.1333
172.44,12.1339
172.58,12.1315
172.71,12.131
172.84,12.129
172.97,12.1286
173.1,12.125
173.24,12.1249
173.38,12.1235
173.5,12.1244
173.64,12.1235
173.77,12.1227
173.9,12.1232
174.04,12.1253
174.17,12.1285
174.3,12.1291
174.44,12.128
174.58,12.128
174.71,12.1322
174.84,12.1335
174.97,12.1358
175.1,12.136
175.24,12.1372
175.37,12.138
175.5,12.1403
175.63,12.1411
175.77,12.1418
175.9,12.1429
176.04,12.1442
176.17,12.1444
176.3,12.1422
176.44,12.1429
176.57,12.1444
176.7,12.148
176.83,12.1472
176.97,12.1481
177.1,12.1473
177.23,12.1495
177.37,12.1496
177.5,12.1497
177.63,12.1502
177.77,12.1513
177.9,12.1518
178.03,12.1537
178.16,12.1545
178.3,12.155
178.43,12.1549
178.56,12.1553
178.69,12.1556
178.83,12.155
178.96,12.1557
179.1,12.155
179.23,12.1569
179.36,12.1554
179.5,12.1591
179.63,12.16
179.76,12.1584
179.89,12.1557
180.03,12.1552
180.16,12.1538
180.29,12.1542
180.43,12.1569
180.56,12.1598
180.69,12.163
180.83,12.1631
180.96,12.1642
181.09,12.1639
181.22,12.1656
181.35,12.1654
181.49,12.1666
181.62,12.1653
181.76,12.1661
181.89,12.1665
182.02,12.1692
182.15,12.1694
182.28,12.1703
182.42,12.1723
182.55,12.1738
182.68,12.176
182.82,12.1769
182.95,12.1766
183.08,12.1757
183.22,12.1755
183.35,12.1754
183.48,12.1771
183.62,12.1755
183.75,12.1774
183.88,12.1779
184.01,12.1813
184.15,12.1833
184.28,12.1886
184.42,12.1896
184.55,12.19
184.68,12.1871
184.81,12.1873
184.95,12.1858
185.08,12.1848
185.22,12.1838
185.35,12.1836
185.48,12.1876
185.62,12.1887
185.75,12.1921
185.88,12.1933
186.02,12.1948
186.15,12.1945
186.28,12.1948
186.42,12.1944
186.55,12.195
186.68,12.1936
186.82,12.1944
186.95,12.1974
187.08,12.2012
187.22,12.1996
187.35,12.198
187.48,12.1988
187.62,12.2006
187.75,12.2033
187.89,12.2072
188.02,12.2277
188.15,12.2334
188.28,12.2316
188.42,12.2264
188.55,12.2236
188.68,12.2184
188.82,12.2164
188.94,12.2126
189.08,12.2118
189.22,12.2095
189.35,12.2104
189.48,12.2106
189.62,12.2111
189.75,12.2115
189.88,12.2132
190.02,12.2136
190.15,12.213
190.28,12.2138
190.41,12.2143
190.55,12.2143
190.68,12.2131
190.82,12.2142
190.94,12.2148
191.08,12.2166
191.21,12.2163
191.35,12.216
191.48,12.2153
191.61,12.2179
191.75,12.218
191.88,12.2219
192.01,12.2231
192.15,12.224
192.28,12.2235
192.41,12.2247
192.55,12.2261
192.68,12.227
192.81,12.2276
192.94,12.2283
193.08,12.2295
193.21,12.2309
193.35,12.2328
193.48,12.2342
193.61,12.236
193.75,12.2348
193.88,12.2322
194.01,12.2293
194.14,12.2319
194.28,12.2316
194.41,12.2312
194.55,12.2294
194.68,12.2301
194.81,12.2313
194.94,12.2342
195.08,12.2344
195.21,12.2355
195.34,12.2365
195.47,12.2358
195.61,12.2345
195.75,12.2332
195.88,12.2345
196.01,12.2366
196.14,12.2372
196.28,12.2385
196.41,12.2423
196.55,12.24
196.68,12.2406
196.81,12.2385
196.94,12.2396
197.08,12.2409
197.21,12.2436
197.34,12.2436
197.47,12.2461
197.61,12.2475
197.75,12.2491
197.88,12.2488
198.01,12.2523
198.15,12.2535
198.28,12.2523
198.41,12.2515
198.54,12.2499
198.68,12.2493
198.81,12.2489
198.94,12.2515
199.08,12.2546
199.21,12.2578
199.35,12.2572
199.47,12.2594
199.61,12.2591
199.74,12.2594
199.88,12.2561
200.01,12.2571
200.15,12.2584
200.28,12.2592
200.41,12.2561
200.54,12.2565
200.68,12.2575
200.81,12.2601
200.94,12.2583
201.08,12.2584
201.21,12.2589
201.34,12.2584
201.47,12.2573
201.61,12.2585
201.74,12.2633
201.87,12.2655
202,12.2671
202.14,12.2665
202.27,12.2667
202.4,12.2662
202.54,12.2679
202.68,12.2687
202.81,12.2707
202.94,12.2718
203.08,12.2752
203.21,12.2762
203.34,12.2777
203.48,12.2748
203.61,12.2739
203.74,12.2718
203.88,12.2721
204,12.2722
204.14,12.2734
204.28,12.2723
204.41,12.2739
204.54,12.2757
204.68,12.2766
204.81,12.2781
204.94,12.2795
205.07,12.2804
205.21,12.2791
205.34,12.2792
205.47,12.28
205.6,12.2803
205.74,12.2801
205.87,12.2801
206,12.281
206.14,12.2823
206.27,12.2808
206.4,12.2786
206.54,12.2788
206.67,12.283
206.8,12.2832
206.93,12.2822
207.07,12.281
207.2,12.2793
207.33,12.2792
207.47,12.2757
207.6,12.2764
207.73,12.2777
207.87,12.2795
208,12.2808
208.13,12.2818
208.27,12.2849
208.4,12.2857
208.53,12.2841
208.67,12.2822
208.8,12.2833
208.93,12.2878
209.06,12.2894
209.19,12.2915
209.33,12.2919
209.46,12.2926
209.6,12.292
209.72,12.2916
209.86,12.2957
209.99,12.2972
210.13,12.2959
210.25,12.2942
210.39,12.2954
210.53,12.2964
210.66,12.2942
210.79,12.2967
210.92,12.3002
211.05,12.3039
211.19,12.3046
211.32,12.3044
211.45,12.3043
211.59,12.3037
211.72,12.3039
211.85,12.3057
211.99,12.3087
212.12,12.3098
212.25,12.3084
212.38,12.3084
212.51,12.3121
212.65,12.3136
212.78,12.3136
212.91,12.3131
213.05,12.3161
213.18,12.317
213.31,12.3155
213.44,12.3173
213.58,12.3193
213.72,12.3225
213.85,12.3244
213.98,12.3254
214.11,12.3265
214.25,12.3287
214.38,12.3351
214.51,12.3356
214.64,12.335
214.78,12.335
214.91,12.3324
215.04,12.3309
215.18,12.3291
215.31,12.33
215.45,12.3315
215.58,12.3299
215.71,12.332
215.85,12.3311
215.97,12.3334
216.11,12.3344
216.24,12.3332
216.38,12.3346
216.51,12.3346
216.64,12.3324
216.78,12.3319
216.91,12.333
217.04,12.334
217.18,12.3303
217.31,12.3321
217.44,12.3338
217.57,12.3369
217.71,12.3392
217.84,12.3377
217.97,12.3382
218.1,12.3361
218.23,12.333
218.37,12.3336
218.5,12.3346
218.63,12.3389
218.77,12.3403
218.9,12.3434
219.03,12.346
219.17,12.3453
219.3,12.3449
219.44,12.3437
219.56,12.3442
219.7,12.3473
219.83,12.3624
219.85,12.3643