File: Raw_Data./Tensile Nozzle 0.4 mm/45 Degrees/LH0.1_45D_N0.4/Test Run 2 02-21-20 12 42 44 PM/DAQ- Crosshead, … - (Timed).txt
File Path: C:\Users\MTS 300\Desktop\robin\eprouvette 45 lh01\Test Run 1 02-21-20 12 42 44 PM\DAQ- Crosshead, … - (Timed).txt
Test: Tensile test LEI 16
Test Run: Test Run 1
Date: 21/02/2020 12:41:05

Crosshead 	Load 	Time 	Strain 1 	Strain 2
mm	kN	sec	mm/mm	mm/mm
0.00688477	0.013046	0.113	-8.78468e-06	1.87018e-05
0.0135742	0.0177164	0.213	1.78951e-05	1.49405e-05
0.0206055	0.0210359	0.313	2.36895e-05	7.91965e-06
0.0276855	0.0249799	0.413	4.88567e-05	-1.13021e-05
0.0350586	0.0314208	0.513	6.8816e-05	-3.34261e-05
0.0430664	0.0370408	0.613	0.000194007	-5.74436e-05
0.0518066	0.0473205	0.713	0.000236535	-7.53289e-05
0.0609375	0.0525089	0.813	0.000325056	-9.55571e-05
0.0693359	0.057299	0.913	0.000361258	-0.000157431
0.077832	0.0649063	1.013	0.000527415	-0.000190999
0.0865723	0.0714684	1.113	0.000527415	-0.000205463
0.0955078	0.0759913	1.213	0.000580664	-0.000209626
0.104248	0.0849297	1.313	0.000742753	-0.000396113
0.112549	0.0933211	1.413	0.000742753	-0.000365223
0.121289	0.0964394	1.513	0.00085287	-0.000380931
0.129883	0.103461	1.613	0.000922207	-0.000388727
0.13877	0.109492	1.713	0.000966952	-0.000423551
0.147363	0.116655	1.813	0.00115731	-0.000471424
0.156006	0.121957	1.913	0.00123133	-0.000523306
0.164404	0.127807	2.013	0.00135374	-0.000537112
0.172998	0.134497	2.113	0.00147053	-0.000544967
0.181641	0.138163	2.213	0.00163837	-0.00056735
0.190283	0.145442	2.313	0.00169221	-0.000583608
0.198486	0.15054	2.413	0.00169221	-0.000605968
0.206836	0.158508	2.513	0.00183405	-0.000656171
0.215527	0.162187	2.613	0.00186694	-0.000660815
0.224561	0.169976	2.713	0.00194378	-0.000662852
0.232568	0.175506	2.813	0.00201857	-0.000727378
0.240869	0.177886	2.913	0.00208254	-0.000751468
0.24917	0.185755	3.013	0.00215044	-0.000794415
0.258154	0.189896	3.113	0.00215044	-0.000787069
0.26626	0.198959	3.213	0.00227073	-0.000881244
0.274219	0.203277	3.313	0.00231788	-0.000856098
0.282324	0.210124	3.413	0.00239814	-0.000833076
0.291162	0.215993	3.513	0.00246591	-0.00100751
0.299609	0.221221	3.613	0.00263294	-0.000994241
0.307861	0.227419	3.713	0.00269813	-0.00103346
0.316064	0.233252	3.813	0.00269813	-0.00108461
0.324658	0.236284	3.913	0.00296592	-0.0010781
0.333057	0.240345	4.013	0.00296592	-0.0011182
0.341602	0.249288	4.113	0.00308862	-0.00115284
0.349854	0.254162	4.213	0.00313269	-0.0011777
0.358496	0.259757	4.313	0.00329597	-0.00118946
0.366602	0.268578	4.413	0.00337501	-0.00117007
0.375244	0.273167	4.513	0.00337501	-0.00125797
0.383984	0.276104	4.613	0.00348152	-0.001276
0.392578	0.281659	4.713	0.00356266	-0.00130216
0.400635	0.287434	4.813	0.00366284	-0.00135004
0.408936	0.290198	4.913	0.00372062	-0.00131503
0.417529	0.298106	5.013	0.00389299	-0.0013433
0.426172	0.302952	5.113	0.00394354	-0.00141822
0.433984	0.307727	5.213	0.003993	-0.00141288
0.442041	0.312134	5.313	0.00411201	-0.00143485
0.450342	0.319153	5.413	0.00427389	-0.00151946
0.459229	0.319905	5.513	0.00431376	-0.00153047
0.467236	0.326656	5.613	0.00441241	-0.00149814
0.475244	0.331827	5.713	0.00449225	-0.00160307
0.48335	0.335718	5.813	0.00453409	-0.00168107
0.492139	0.342954	5.913	0.00460654	-0.00170407
0.500488	0.345993	6.013	0.00469313	-0.00171345
0.508594	0.350131	6.113	0.00473051	-0.00171753
0.516797	0.353474	6.213	0.00482811	-0.00183416
0.525342	0.360035	6.313	0.00484318	-0.00176838
0.53374	0.365166	6.413	0.00491835	-0.00179902
0.542334	0.368584	6.513	0.00502214	-0.00179462
0.550684	0.373401	6.613	0.00506735	-0.00178855
0.559277	0.379144	6.713	0.00520879	-0.0018736
0.567383	0.382084	6.813	0.00520879	-0.0018922
0.57583	0.388766	6.913	0.00539858	-0.00192425
0.584424	0.389467	7.013	0.00547064	-0.00193273
0.592773	0.397603	7.113	0.00559022	-0.00195356
0.600732	0.399737	7.213	0.00568704	-0.00195737
0.609033	0.405493	7.313	0.00585764	-0.00204148
0.617676	0.408716	7.413	0.00595551	-0.00203323
0.626367	0.415136	7.513	0.00597934	-0.00206987
0.634229	0.418374	7.613	0.00615652	-0.00211819
0.642334	0.421649	7.713	0.00619947	-0.00209355
0.650781	0.427061	7.813	0.00624854	-0.00209355
0.659668	0.430193	7.913	0.00640009	-0.00227683
0.667627	0.435251	8.013	0.00640009	-0.00229156
0.675635	0.438237	8.113	0.00648323	-0.00234694
0.683887	0.443894	8.213	0.00650844	-0.0023395
0.692725	0.446962	8.313	0.00660314	-0.00235781
0.701172	0.450388	8.413	0.00669432	-0.00236506
0.709326	0.453752	8.513	0.00678793	-0.00243313
0.717627	0.461299	8.613	0.00684304	-0.00242754
0.726172	0.46485	8.713	0.00699633	-0.00244043
0.734473	0.468378	8.813	0.00704704	-0.00244571
0.74292	0.471107	8.913	0.00711588	-0.00248695
0.751123	0.478586	9.013	0.00722775	-0.00249504
0.75957	0.480463	9.113	0.00737867	-0.00250286
0.767578	0.483654	9.213	0.00741942	-0.00257737
0.775977	0.488606	9.313	0.00747308	-0.00255524
0.78457	0.494989	9.413	0.00758962	-0.00263517
0.79292	0.498623	9.513	0.00762164	-0.00264874
0.800732	0.500888	9.613	0.00767335	-0.00268128
0.808887	0.504236	9.713	0.00774561	-0.00270095
0.817432	0.507921	9.813	0.00779127	-0.00269937
0.826123	0.513797	9.913	0.00793912	-0.00282447
0.833936	0.513585	10.013	0.00800164	-0.00285398
0.842041	0.517784	10.113	0.00812972	-0.00285657
0.850391	0.522524	10.213	0.00823758	-0.00288528
0.859326	0.527754	10.313	0.00832385	-0.00290845
0.867432	0.530538	10.413	0.00846864	-0.00295745
0.875488	0.532	10.513	0.00852946	-0.00297566
0.88374	0.537965	10.613	0.00871417	-0.00296553
0.892627	0.543694	10.713	0.00875866	-0.00300309
0.901025	0.546122	10.813	0.00881165	-0.00301338
0.909082	0.550031	10.913	0.00895597	-0.00303364
0.917383	0.551386	11.013	0.00899192	-0.00307334
0.925879	0.556191	11.113	0.0090674	-0.00308941
0.934229	0.562601	11.213	0.00909721	-0.00310033
0.942676	0.563669	11.313	0.00918918	-0.00313121
0.950879	0.57011	11.413	0.00923371	-0.00314111
0.959326	0.570853	11.513	0.00928451	-0.00316523
0.967285	0.574385	11.613	0.00935609	-0.00324135
0.975732	0.583046	11.713	0.00943897	-0.00324649
0.984229	0.583802	11.813	0.00952184	-0.00326303
0.992627	0.586069	11.913	0.00952184	-0.00329362
1.00054	0.592352	12.013	0.00977478	-0.00340221
1.00874	0.592957	12.113	0.00981909	-0.00341733
1.01743	0.596872	12.213	0.0098711	-0.00347869
1.02622	0.598251	12.313	0.0100082	-0.00345255
1.03408	0.60391	12.413	0.0101192	-0.00348589
1.04219	0.60637	12.513	0.0102386	-0.0034649
1.05059	0.610321	12.613	0.0102899	-0.00352292
1.05952	0.613618	12.713	0.0103834	-0.00351603
1.06763	0.616043	12.813	0.0104703	-0.00356189
1.07578	0.61856	12.913	0.0105122	-0.00355271
1.08403	0.625189	13.013	0.0106165	-0.00361756
1.09287	0.628602	13.113	0.0106474	-0.00365852
1.10127	0.628026	13.213	0.0107926	-0.00368213
1.10942	0.634356	13.313	0.0108361	-0.00367563
1.11763	0.638758	13.413	0.0109623	-0.00367551
1.12612	0.640942	13.513	0.0110757	-0.00373105
1.13433	0.641917	13.613	0.0111186	-0.00376337
1.14268	0.646975	13.713	0.0112502	-0.0037834
1.15083	0.64956	13.813	0.0113109	-0.00383076
1.15928	0.652289	13.913	0.0114247	-0.0038432
1.16724	0.656754	14.013	0.0115103	-0.00388367
1.17573	0.658157	14.113	0.0116042	-0.00384844
1.18433	0.66116	14.213	0.0116504	-0.00397536
1.19277	0.664588	14.313	0.0117136	-0.00396885
1.20073	0.671402	14.413	0.0117744	-0.00403992
1.20903	0.670914	14.513	0.011819	-0.00401108
1.21768	0.674496	14.613	0.0119117	-0.00405387
1.22637	0.678469	14.713	0.0119654	-0.00405297
1.23428	0.680316	14.813	0.0120448	-0.00405006
1.24243	0.687285	14.913	0.0120932	-0.00412108
1.25093	0.687391	15.013	0.0122194	-0.00411503
1.25991	0.690101	15.113	0.0122975	-0.00414176
1.26802	0.695863	15.213	0.0123813	-0.00416288
1.27607	0.695656	15.313	0.0125999	-0.00421474
1.28423	0.701707	15.413	0.0126435	-0.00422759
1.29287	0.702697	15.513	0.0127854	-0.00420936
1.30112	0.70552	15.613	0.0128552	-0.00428504
1.30913	0.710155	15.713	0.0129292	-0.00427627
1.31729	0.711107	15.813	0.0131142	-0.00428644
1.32568	0.712537	15.913	0.0131783	-0.00431131
1.33398	0.715112	16.013	0.0132845	-0.00429487
1.34248	0.719272	16.113	0.0133512	-0.0042872
1.35073	0.722548	16.213	0.0134135	-0.00433437
1.35928	0.727172	16.313	0.0134553	-0.00441861
1.36729	0.724661	16.413	0.0135062	-0.00455236
1.37568	0.730737	16.513	0.0136291	-0.00456645
1.38418	0.732832	16.613	0.0136633	-0.00458823
1.39258	0.735273	16.713	0.013758	-0.00454222
1.40054	0.737762	16.813	0.0138212	-0.00461102
1.40889	0.741423	16.913	0.0139586	-0.00460222
1.41763	0.740504	17.013	0.0139993	-0.00461927
1.42642	0.744446	17.113	0.0140382	-0.0046666
1.43433	0.748772	17.213	0.0142384	-0.00466441
1.44243	0.751262	17.313	0.0142997	-0.00466841
1.45088	0.753881	17.413	0.014346	-0.00474769
1.45972	0.757158	17.513	0.0143932	-0.00474812
1.46772	0.75615	17.613	0.0146006	-0.00480055
1.47568	0.762466	17.713	0.0146493	-0.00481203
1.48389	0.761624	17.813	0.0146786	-0.00483318
1.49268	0.765521	17.913	0.014762	-0.00485888
1.50107	0.770481	18.013	0.0148142	-0.00485888
1.50923	0.769751	18.113	0.0149696	-0.00488476
1.51743	0.771281	18.213	0.0150098	-0.00491054
1.52588	0.776665	18.313	0.0151843	-0.00500108
1.53413	0.777484	18.413	0.0152194	-0.00504364
1.54253	0.781577	18.513	0.0152611	-0.00505444
1.55068	0.782367	18.613	0.0154349	-0.00515702
1.55913	0.786281	18.713	0.0155206	-0.0051089
1.56709	0.787284	18.813	0.0157283	-0.00511976
1.57563	0.787054	18.913	0.0158209	-0.00509273
1.58433	0.790246	19.013	0.0159492	-0.00514376
1.59277	0.795181	19.113	0.0159854	-0.00519172
1.60073	0.794625	19.213	0.0160499	-0.0052484
1.60898	0.799168	19.313	0.0161042	-0.00528155
1.61763	0.801553	19.413	0.0161613	-0.00523868
1.62627	0.804301	19.513	0.0162411	-0.00527481
1.63408	0.805754	19.613	0.0162443	-0.00529113
1.64209	0.808454	19.713	0.0163759	-0.00525397
1.65049	0.809707	19.813	0.0164612	-0.0054345
1.65947	0.812029	19.913	0.0164939	-0.00540297
1.66753	0.814242	20.013	0.0165404	-0.00544395
1.67559	0.816054	20.113	0.0166063	-0.00545129
1.68379	0.816494	20.213	0.0168493	-0.00544014
1.69258	0.819916	20.313	0.0168734	-0.00558392
1.70088	0.820218	20.413	0.0169856	-0.0056447
1.70889	0.822934	20.513	0.0171289	-0.00561079
1.71709	0.823016	20.613	0.0172038	-0.00565875
1.72563	0.827373	20.713	0.0172921	-0.00573148
1.73403	0.825833	20.813	0.0173692	-0.00574855
1.74258	0.828541	20.913	0.0175203	-0.00563532
1.75093	0.829934	21.013	0.01753	-0.00579014
1.75942	0.8307	21.113	0.0176768	-0.00577314
1.76753	0.832204	21.213	0.0177564	-0.00575388
1.77603	0.836628	21.313	0.0178129	-0.00581292
1.78462	0.838218	21.413	0.0179673	-0.00587754
1.79287	0.84089	21.513	0.0180459	-0.00593736
1.80073	0.841602	21.613	0.0182669	-0.0059448
1.80894	0.842962	21.713	0.0183345	-0.0059106
1.81758	0.84115	21.813	0.018419	-0.0059799
1.82627	0.844445	21.913	0.0184552	-0.00599662
1.83413	0.846406	22.013	0.0185686	-0.00600521
1.84224	0.847688	22.113	0.0186413	-0.00597861
1.85059	0.849357	22.213	0.0187248	-0.00604483
1.85952	0.850269	22.313	0.0188204	-0.00615032
1.86758	0.853022	22.413	0.0188679	-0.00615506
1.87559	0.85163	22.513	0.0189869	-0.00617531
1.88384	0.851957	22.613	0.0190205	-0.0062623
1.89263	0.855249	22.713	0.0191045	-0.00627376
1.90098	0.858211	22.813	0.0192159	-0.00624146
1.90913	0.856149	22.913	0.0191804	-0.00625496
1.91743	0.858716	23.013	0.0193437	-0.00628963
1.92598	0.858742	23.113	0.0195146	-0.006279
1.93433	0.861552	23.213	0.0196594	-0.00634022
1.94277	0.859355	23.313	0.0196872	-0.00638866
1.95103	0.86034	23.413	0.0197768	-0.0064057
1.95947	0.867002	23.513	0.019848	-0.00644387
1.96743	0.864644	23.613	0.0199681	-0.00649777
1.97588	0.867351	23.713	0.0202092	-0.00648301
1.98447	0.864343	23.813	0.0203481	-0.00652175
1.99282	0.868442	23.913	0.0203653	-0.00646297
2.00078	0.867958	24.013	0.0204728	-0.00658316
2.00903	0.868965	24.113	0.0205425	-0.00660771
2.01763	0.869935	24.213	0.0207047	-0.00662105
2.02622	0.87379	24.313	0.0207615	-0.00669821
2.03403	0.871554	24.413	0.0207865	-0.00679017
2.04214	0.871101	24.513	0.0208286	-0.00673437
2.05059	0.871559	24.613	0.0209907	-0.00676933
2.05962	0.874856	24.713	0.0210731	-0.00676511
2.06768	0.875268	24.813	0.0211733	-0.00684357
2.07573	0.874743	24.913	0.0213094	-0.0068861
2.08403	0.875745	25.013	0.0213781	-0.00684056
2.09282	0.878367	25.113	0.0214904	-0.00679534
2.10122	0.876239	25.213	0.0215258	-0.00685992
2.10928	0.873384	25.313	0.0216896	-0.00688972
2.11758	0.876769	25.413	0.0217777	-0.00697299
2.12607	0.879569	25.513	0.0218544	-0.00702581
2.13442	0.877711	25.613	0.0219928	-0.00706277
2.14282	0.880166	25.713	0.0220559	-0.00706895
2.15107	0.878543	25.813	0.0221647	-0.00707566
2.15947	0.881374	25.913	0.022216	-0.00709768
2.16743	0.881314	26.013	0.0224112	-0.00709999
2.17583	0.879888	26.113	0.0224728	-0.00712912
2.18433	0.880851	26.213	0.0224728	-0.00723997
2.19272	0.881717	26.313	0.0226764	-0.0072261
2.20068	0.882372	26.413	0.0228623	-0.00730549
2.20898	0.882145	26.513	0.0230336	-0.00732602
2.21768	0.880929	26.613	0.0230922	-0.0073089
2.22642	0.879913	26.713	0.0232662	-0.00734057
2.23428	0.884824	26.813	0.0233321	-0.00739562
2.24233	0.884132	26.913	0.0233919	-0.00738538
2.25078	0.882707	27.013	0.0234938	-0.00744271
2.25967	0.882394	27.113	0.0235332	-0.00744437
2.26768	0.884221	27.213	0.0236492	-0.00745881
2.27568	0.884073	27.313	0.0236962	-0.00749751
2.28394	0.884451	27.413	0.0238072	-0.00748145
2.29272	0.883764	27.513	0.023921	-0.0075947
2.30112	0.882735	27.613	0.0239497	-0.00760198
2.30918	0.884636	27.713	0.0240514	-0.00758175
2.31738	0.882517	27.813	0.0241462	-0.00766696
2.32578	0.883907	27.913	0.0243479	-0.00765157
2.33398	0.885604	28.013	0.0244294	-0.00764241
2.34233	0.881451	28.113	0.0245655	-0.00774504
2.35049	0.883	28.213	0.0246272	-0.00774751
2.35894	0.881764	28.313	0.02476	-0.00775052
2.36689	0.879478	28.413	0.0248626	-0.00777729
2.37539	0.883348	28.513	0.0249216	-0.00783351
2.38398	0.881137	28.613	0.0250667	-0.00783501
2.39248	0.881625	28.713	0.0251242	-0.00790765
2.40044	0.882812	28.813	0.0252515	-0.00787309
2.40869	0.883424	28.913	0.0253117	-0.00790735
2.41724	0.882671	29.013	0.0254451	-0.00793871
2.42598	0.885033	29.113	0.0255813	-0.00799214
2.43384	0.882068	29.213	0.0256767	-0.00800688
2.44199	0.882094	29.313	0.025882	-0.00800369
2.45049	0.879418	29.413	0.0259514	-0.00805349
2.45957	0.882714	29.513	0.0260728	-0.00805964
2.46777	0.883193	29.613	0.0261164	-0.00805539
2.47588	0.882224	29.713	0.0262117	-0.00816292
2.48413	0.881533	29.813	0.0262816	-0.00816393
2.49292	0.881315	29.913	0.0263094	-0.00811301
2.50122	0.880009	30.013	0.0263825	-0.00818465
2.50923	0.879978	30.113	0.0265041	-0.00824375
2.51738	0.881034	30.213	0.0266472	-0.00815653
2.52588	0.880279	30.313	0.0266472	-0.0082221
2.53418	0.880781	30.413	0.0267548	-0.00828341
2.54263	0.881431	30.513	0.0269927	-0.00828464
2.55083	0.880925	30.613	0.0270654	-0.00834571
2.55933	0.878703	30.713	0.0272254	-0.00834941
2.56733	0.88194	30.813	0.0273906	-0.00838075
2.57578	0.879889	30.913	0.0274879	-0.00836187
2.58433	0.876881	31.013	0.0275434	-0.0084302
2.59268	0.877551	31.113	0.0276034	-0.00839663
2.60063	0.878729	31.213	0.0277563	-0.00847214
2.60894	0.878674	31.313	0.0278219	-0.00845135
2.61768	0.875293	31.413	0.0278994	-0.0084917
2.62646	0.87703	31.513	0.02796	-0.00851445
2.63437	0.874531	31.613	0.0281105	-0.00856466
2.64243	0.875257	31.713	0.0281677	-0.0085465
2.65088	0.875036	31.813	0.0282276	-0.00855411
2.65972	0.877226	31.913	0.0284088	-0.00858102
2.66768	0.873833	32.013	0.0284755	-0.00859268
2.67563	0.87759	32.113	0.0286416	-0.00866776
2.68384	0.874041	32.213	0.0286558	-0.0086436
2.69258	0.874476	32.313	0.0287723	-0.0086436
2.70093	0.873134	32.413	0.0288618	-0.00869123
2.70908	0.873151	32.513	0.0289282	-0.00872781
2.71729	0.873841	32.613	0.0290957	-0.00871304
2.72578	0.874074	32.713	0.0291383	-0.008749
2.73413	0.870482	32.813	0.0292691	-0.00877381
2.74258	0.872016	32.913	0.0293174	-0.00876167
2.75078	0.870063	33.013	0.0295333	-0.00881972
2.75923	0.873543	33.113	0.0296117	-0.00886838
2.76729	0.869419	33.213	0.0296905	-0.00887616
2.77588	0.867358	33.313	0.0298531	-0.00889671
2.78452	0.871997	33.413	0.0299563	-0.00891861
2.79297	0.869652	33.513	0.030078	-0.00888848
2.80093	0.869334	33.613	0.0301438	-0.00897509
2.80928	0.869332	33.713	0.0302439	-0.00895641
2.81787	0.867489	33.813	0.030256	-0.00901885
2.82646	0.868201	33.913	0.0303011	-0.00901279
2.83418	0.867213	34.013	0.030376	-0.0090334
2.84219	0.867243	34.113	0.0304894	-0.00903596
2.85059	0.866207	34.213	0.0305872	-0.0091194
2.85957	0.864371	34.313	0.0306525	-0.0091194
2.86763	0.864106	34.413	0.0307828	-0.00909842
2.87563	0.865372	34.513	0.0309907	-0.00911702
2.88384	0.867141	34.613	0.031087	-0.00914228
2.89258	0.863716	34.713	0.031188	-0.0091758
2.90093	0.867061	34.813	0.0312571	-0.0092017
2.90898	0.866583	34.913	0.0314507	-0.0091679
2.91724	0.864059	35.013	0.0315094	-0.00919365
2.92568	0.862976	35.113	0.0315771	-0.00920249
2.93408	0.863451	35.213	0.0316855	-0.00921236
2.94263	0.862216	35.313	0.0317294	-0.0092433
2.95093	0.862114	35.413	0.0318314	-0.00928282
2.95947	0.86104	35.513	0.0318731	-0.00929411
2.96753	0.863801	35.613	0.0320617	-0.00930044
2.97603	0.860784	35.713	0.0321357	-0.00930263
2.98452	0.860729	35.813	0.0322642	-0.00935032
2.99282	0.861393	35.913	0.0323487	-0.00936375
3.00063	0.861919	36.013	0.0324375	-0.00939313
3.00879	0.85938	36.113	0.032549	-0.00941838
3.01733	0.860617	36.213	0.0326112	-0.00942513
3.02603	0.859027	36.313	0.0327421	-0.00943711
3.03384	0.859104	36.413	0.0327421	-0.00948069
3.04199	0.860152	36.513	0.0329027	-0.00949
3.05039	0.856897	36.613	0.0329445	-0.00948465
3.05933	0.860664	36.713	0.0330383	-0.00949578
3.06733	0.85331	36.813	0.033188	-0.0095359
3.07539	0.853931	36.913	0.0332315	-0.00954459
3.08364	0.854156	37.013	0.0333719	-0.00956926
3.09248	0.857265	37.113	0.0335478	-0.00957266
3.10093	0.857373	37.213	0.0336417	-0.00960809
3.10908	0.856964	37.313	0.0337187	-0.00962886
3.11733	0.85512	37.413	0.0337858	-0.00961249
3.12588	0.85519	37.513	0.0339189	-0.00960028
3.13418	0.854263	37.613	0.0339739	-0.00967371
3.14263	0.855334	37.713	0.0340828	-0.00968409
3.15083	0.855164	37.813	0.0341347	-0.00973271
3.15928	0.854557	37.913	0.034154	-0.00966756
3.16724	0.851568	38.013	0.034192	-0.00969085
3.17568	0.852391	38.113	0.0342829	-0.00971376
3.18428	0.853376	38.213	0.0345386	-0.00971494
3.19263	0.852514	38.313	0.034572	-0.00976601
3.20054	0.850417	38.413	0.0346992	-0.00973748
3.20869	0.850186	38.513	0.0347708	-0.00979255
3.21729	0.850238	38.613	0.0349643	-0.00982413
3.22598	0.851484	38.713	0.0350319	-0.00982099
3.23379	0.852684	38.813	0.0350881	-0.00984162
3.24194	0.850943	38.913	0.035259	-0.00989952
3.25039	0.850937	39.013	0.0352927	-0.00988786
3.25937	0.848762	39.113	0.0353682	-0.0099319
3.26748	0.849857	39.213	0.0354181	-0.00996556
3.27563	0.849145	39.313	0.0355815	-0.0099989
3.28389	0.848392	39.413	0.0356389	-0.00992035
3.29277	0.850036	39.513	0.0356711	-0.00993471
3.30112	0.849896	39.613	0.035882	-0.00997212
3.30923	0.846726	39.713	0.0359312	-0.00993909
3.31753	0.849106	39.813	0.036049	-0.00997185
3.32612	0.848299	39.913	0.0361295	-0.0100119
3.33447	0.848342	40.013	0.0362393	-0.0100321
3.34292	0.8459	40.113	0.0363024	-0.010024
3.35112	0.8464	40.213	0.0363362	-0.0100701
3.35947	0.846501	40.313	0.0364692	-0.0101095
3.36748	0.847458	40.413	0.0365514	-0.0101095
3.37588	0.8451	40.513	0.0366779	-0.00998856
3.38433	0.843719	40.613	0.0367383	-0.0100671
3.39263	0.843598	40.713	0.0369577	-0.0101258
3.40054	0.843032	40.813	0.0370109	-0.0102018
3.40879	0.84372	40.913	0.0370792	-0.0101973
3.41748	0.845219	41.013	0.0371673	-0.0102071
3.42622	0.842945	41.113	0.0372804	-0.0101608
3.43413	0.8427	41.213	0.0373762	-0.0102268
3.44229	0.842694	41.313	0.0374333	-0.0102093
3.45073	0.843092	41.413	0.0375756	-0.0102171
3.45967	0.843658	41.513	0.0375523	-0.010279
3.46777	0.84125	41.613	0.0376148	-0.0103032
3.47583	0.841782	41.713	0.0377708	-0.0102974
3.48413	0.844203	41.813	0.0377905	-0.0103915
3.49292	0.843746	41.913	0.0379832	-0.0103587
3.50127	0.845843	42.013	0.0380455	-0.0103674
3.50933	0.845057	42.113	0.0381671	-0.0103988
3.51753	0.841321	42.213	0.038282	-0.010368
3.52593	0.840777	42.313	0.0383705	-0.0104173
3.53408	0.843154	42.413	0.0384561	-0.0104048
3.54243	0.840444	42.513	0.0385135	-0.0103844
3.55054	0.839503	42.613	0.0386336	-0.0103657
3.55898	0.840925	42.713	0.0386932	-0.0104247
3.56699	0.838891	42.813	0.0387993	-0.0103651
3.57554	0.839444	42.913	0.0388341	-0.010407
3.58418	0.840825	43.013	0.0388887	-0.0104847
3.59268	0.84035	43.113	0.0389955	-0.0104963
3.60063	0.838939	43.213	0.0390619	-0.0105605
3.60889	0.836922	43.313	0.0392139	-0.0105398
3.61758	0.840113	43.413	0.0392821	-0.0105782
3.62627	0.836006	43.513	0.0393843	-0.0105777
3.63418	0.835025	43.613	0.0394655	-0.0105498
3.64229	0.83747	43.713	0.0395771	-0.0105804
3.65078	0.835321	43.813	0.0396701	-0.010628
3.65981	0.836408	43.913	0.0397018	-0.0106117
3.66787	0.836517	44.013	0.0398098	-0.0105938
3.67593	0.836004	44.113	0.0398735	-0.0106421
3.68413	0.836735	44.213	0.0399849	-0.0106193
3.69282	0.83389	44.313	0.0400648	-0.010659
3.70107	0.834572	44.413	0.0400867	-0.0107169
3.70908	0.836181	44.513	0.0402749	-0.0107096
3.71724	0.836195	44.613	0.0402749	-0.0107685
3.72568	0.836773	44.713	0.0404185	-0.0107648
3.73403	0.836165	44.813	0.0405298	-0.0108149
3.74248	0.833182	44.913	0.0406069	-0.0108347
3.75078	0.830956	45.013	0.0406425	-0.0108321
3.75928	0.834184	45.113	0.0407033	-0.0108567
3.76733	0.832114	45.213	0.0408409	-0.0109278
3.77578	0.833672	45.313	0.0408897	-0.0108924
3.78438	0.832114	45.413	0.0409403	-0.0109476
3.79272	0.832346	45.513	0.0410376	-0.0108657
3.80078	0.830809	45.613	0.0411233	-0.0109021
3.80913	0.830771	45.713	0.0412219	-0.0109802
3.81792	0.829366	45.813	0.0412217	-0.010938
3.82661	0.831375	45.913	0.0414401	-0.0109966
3.83452	0.834701	46.013	0.041474	-0.0110506
3.84263	0.827084	46.113	0.0415582	-0.011016
3.85103	0.830866	46.213	0.0416088	-0.0110626
3.85981	0.830525	46.313	0.0417601	-0.0110787
3.86768	0.83027	46.413	0.0417514	-0.0111649
3.87559	0.82733	46.513	0.0418036	-0.0111595
3.88374	0.827519	46.613	0.0419201	-0.0111963
3.89258	0.828131	46.713	0.0419744	-0.0111957
3.90098	0.825862	46.813	0.0420245	-0.0111354
3.90908	0.82523	46.913	0.0420652	-0.0112684
3.91733	0.825127	47.013	0.0421845	-0.0111981
3.92588	0.826319	47.113	0.0422587	-0.0112727
3.93418	0.823561	47.213	0.0423118	-0.0112725
3.94263	0.82471	47.313	0.0423933	-0.0113158
3.95083	0.824821	47.413	0.042469	-0.0113871
3.95928	0.823977	47.513	0.0424992	-0.0113808
3.96733	0.822271	47.613	0.0425322	-0.0113991
3.97588	0.820213	47.713	0.0427046	-0.0114264
3.98457	0.818407	47.813	0.0427196	-0.0114422
3.99297	0.82104	47.913	0.0427455	-0.0114797
4.00093	0.817509	48.013	0.0427951	-0.0114881
4.00913	0.793993	48.113	0.0428631	-0.0114414
4.01045	-0.0865196	48.128	0.0428718	-0.0114414