File: Raw_Data./Tensile Nozzle 0.4 mm/45 Degrees/LH0.1_45D_N0.4/Test Run 5 02-21-20 12 51 24 PM/DAQ- Crosshead, … - (Timed).txt
File Path: C:\Users\MTS 300\Desktop\robin\eprouvette 45 lh01\Test Run 1 02-21-20 12 51 24 PM\DAQ- Crosshead, … - (Timed).txt
Test: Tensile test LEI 19
Test Run: Test Run 1
Date: 21/02/2020 12:50:09

Crosshead 	Load 	Time 	Strain 1 	Strain 2
mm	kN	sec	mm/mm	mm/mm
0.00385742	-0.00343692	0.114	-1.23968e-05	-4.15359e-05
0.00986328	-0.0011669	0.214	-2.24382e-05	1.52942e-05
0.0168945	0.00752945	0.314	4.37806e-05	-6.2385e-05
0.0248047	0.0104668	0.414	8.42598e-05	-3.79299e-05
0.0333008	0.0203311	0.514	0.00017729	-6.29973e-05
0.0424316	0.0241651	0.614	0.000286787	-0.000119482
0.0513672	0.0340958	0.714	0.000328275	-0.000142978
0.0599609	0.04047	0.814	0.000380444	-0.000149066
0.0688477	0.0479785	0.914	0.00048282	-0.000173602
0.0776367	0.054598	1.014	0.000561336	-0.000223171
0.0866211	0.059531	1.114	0.00064194	-0.000214937
0.0952148	0.0686494	1.214	0.000697483	-0.000271924
0.103955	0.0750454	1.314	0.000905	-0.000330392
0.1125	0.0828217	1.414	0.000973632	-0.000330392
0.121436	0.0904999	1.514	0.000973632	-0.000365396
0.13042	0.0969186	1.614	0.00111442	-0.000408325
0.139404	0.102609	1.714	0.00116529	-0.000408325
0.1479	0.112184	1.814	0.00139709	-0.000519844
0.156445	0.116404	1.914	0.00145517	-0.000501038
0.165283	0.123892	2.014	0.0015824	-0.000542816
0.174316	0.131065	2.114	0.00171349	-0.000572281
0.182324	0.137127	2.214	0.00177412	-0.000584809
0.190576	0.1429	2.314	0.0018639	-0.00064606
0.19917	0.152446	2.414	0.00197389	-0.000662327
0.208203	0.157356	2.514	0.00202073	-0.00068774
0.216357	0.161789	2.614	0.00206873	-0.000749035
0.224512	0.169006	2.714	0.00216248	-0.000769174
0.232861	0.173419	2.814	0.00216248	-0.000769174
0.24165	0.179715	2.914	0.00223982	-0.000763869
0.250098	0.188055	3.014	0.00233309	-0.00087262
0.258154	0.191907	3.114	0.00236969	-0.000849044
0.266455	0.197668	3.214	0.00257023	-0.000926683
0.274902	0.202195	3.314	0.00257023	-0.000962466
0.28335	0.207496	3.414	0.00270962	-0.000940014
0.291846	0.217135	3.514	0.002772	-0.00102092
0.300244	0.221528	3.614	0.002893	-0.00103597
0.30874	0.230589	3.714	0.00301799	-0.00104661
0.316895	0.236031	3.814	0.00306646	-0.00107411
0.325488	0.240024	3.914	0.00323168	-0.0011537
0.334033	0.247294	4.014	0.00323168	-0.0011537
0.342285	0.252425	4.114	0.0034111	-0.00118365
0.350244	0.256142	4.214	0.00346824	-0.00121957
0.358594	0.25971	4.314	0.00358592	-0.00121984
0.367334	0.267964	4.414	0.00362811	-0.00129223
0.375781	0.275073	4.514	0.00375458	-0.00128078
0.383643	0.280039	4.614	0.00380641	-0.00134649
0.391699	0.285205	4.714	0.00397748	-0.00140826
0.400244	0.29183	4.814	0.00401544	-0.00138589
0.408984	0.298188	4.914	0.00411929	-0.00141328
0.417041	0.301486	5.014	0.00411929	-0.00141328
0.425146	0.305026	5.114	0.00437528	-0.00150216
0.433496	0.310895	5.214	0.00444308	-0.00149281
0.442236	0.316814	5.314	0.00446435	-0.00155095
0.450684	0.32347	5.414	0.00457761	-0.00152759
0.458838	0.324067	5.514	0.00467342	-0.00158859
0.467285	0.331892	5.614	0.00472521	-0.00161583
0.475781	0.33604	5.714	0.00477598	-0.00158659
0.48418	0.341177	5.814	0.00489014	-0.00167061
0.492627	0.345831	5.914	0.00489014	-0.00174002
0.500879	0.350796	6.014	0.00490966	-0.00174391
0.50918	0.357562	6.114	0.00499103	-0.00174391
0.517334	0.360157	6.214	0.00514917	-0.00184651
0.525928	0.36379	6.314	0.00518922	-0.00182794
0.534521	0.370015	6.414	0.00527187	-0.00181176
0.542627	0.375545	6.514	0.00548262	-0.00191259
0.550586	0.379332	6.614	0.00563637	-0.00193496
0.558887	0.384573	6.714	0.00570093	-0.00195658
0.567578	0.388983	6.814	0.00577618	-0.00192249
0.575879	0.394406	6.914	0.00599238	-0.001991
0.58374	0.398204	7.014	0.00605894	-0.00204485
0.591895	0.399604	7.114	0.00613211	-0.00205464
0.600537	0.408216	7.214	0.00627469	-0.00208383
0.609326	0.411466	7.314	0.00635115	-0.0020961
0.617334	0.417798	7.414	0.00644418	-0.00209652
0.625439	0.42207	7.514	0.00649563	-0.00213574
0.633838	0.424106	7.614	0.00662979	-0.00219055
0.642529	0.432239	7.714	0.00666926	-0.00220265
0.650977	0.437883	7.814	0.00674404	-0.00223422
0.659131	0.442254	7.914	0.0068758	-0.00223652
0.667529	0.447916	8.014	0.0068758	-0.00231232
0.675977	0.45041	8.114	0.00701234	-0.00234222
0.684473	0.455727	8.214	0.00706731	-0.00238664
0.692969	0.458333	8.314	0.00720266	-0.00240248
0.701318	0.463937	8.414	0.00726559	-0.00245442
0.709521	0.468706	8.514	0.0073024	-0.0025078
0.717725	0.471819	8.614	0.00742247	-0.00252983
0.726172	0.475698	8.714	0.00752069	-0.00251369
0.734668	0.481864	8.814	0.00761264	-0.00253315
0.742822	0.484557	8.914	0.00763916	-0.00255136
0.750879	0.487869	9.014	0.00771193	-0.00260774
0.759277	0.491429	9.114	0.00783714	-0.00262523
0.768115	0.496474	9.214	0.00786833	-0.00265431
0.776416	0.500162	9.314	0.00795767	-0.00271248
0.784424	0.502478	9.414	0.0081103	-0.00271248
0.79248	0.50669	9.514	0.00821861	-0.00271427
0.801074	0.513136	9.614	0.00829263	-0.00276721
0.809717	0.517032	9.714	0.00836137	-0.00280378
0.817725	0.519001	9.814	0.00860479	-0.00282719
0.825879	0.523836	9.914	0.00867325	-0.00282719
0.834277	0.527941	10.014	0.00872124	-0.00286753
0.843018	0.531825	10.114	0.00885979	-0.00286753
0.851465	0.534886	10.214	0.00901279	-0.00292236
0.859522	0.536536	10.314	0.00906387	-0.00298126
0.867822	0.54244	10.414	0.00909839	-0.00302015
0.876123	0.548577	10.514	0.00922387	-0.00303688
0.884424	0.554514	10.614	0.00924206	-0.00303363
0.892773	0.557789	10.714	0.00933384	-0.00307003
0.901025	0.560392	10.814	0.00933733	-0.00304844
0.909229	0.565877	10.914	0.00947066	-0.00315906
0.917383	0.564831	11.014	0.00953002	-0.00315975
0.925977	0.569909	11.114	0.00957714	-0.00320676
0.934619	0.57466	11.214	0.00966844	-0.00322646
0.942871	0.57954	11.314	0.00979037	-0.00325909
0.95083	0.580135	11.414	0.00993509	-0.00325188
0.959131	0.586715	11.514	0.0100012	-0.00330221
0.967871	0.590236	11.614	0.0101703	-0.00328195
0.976172	0.592712	11.714	0.0102168	-0.00332633
0.984131	0.595976	11.814	0.0102468	-0.00336143
0.992334	0.599189	11.914	0.0103575	-0.00341932
1.00103	0.6044	12.014	0.0104654	-0.00336847
1.00981	0.608722	12.114	0.0105806	-0.00343639
1.01792	0.609103	12.214	0.0106451	-0.00346068
1.02607	0.610895	12.314	0.01081	-0.00346998
1.03442	0.618067	12.414	0.010871	-0.00349487
1.04297	0.619264	12.514	0.0109203	-0.00355899
1.05122	0.625823	12.614	0.0110229	-0.00356452
1.05918	0.627025	12.714	0.0111443	-0.00357135
1.06753	0.631382	12.814	0.0112682	-0.00365569
1.07593	0.634154	12.914	0.0112928	-0.00369662
1.08437	0.637274	13.014	0.0114276	-0.00371349
1.09287	0.643381	13.114	0.0115367	-0.00374191
1.10127	0.646226	13.214	0.0116031	-0.00376614
1.10952	0.650117	13.314	0.0117267	-0.00375491
1.11772	0.655302	13.414	0.0117869	-0.00377716
1.12622	0.657295	13.514	0.0119307	-0.00380953
1.13467	0.660509	13.614	0.0119702	-0.0037446
1.14282	0.663207	13.714	0.0120543	-0.003813
1.15083	0.670666	13.814	0.0121173	-0.00385823
1.15923	0.671437	13.914	0.0121474	-0.0038923
1.16816	0.672093	14.014	0.0122166	-0.00390412
1.17656	0.679974	14.114	0.0122689	-0.00393866
1.18467	0.681378	14.214	0.0124514	-0.00399513
1.19277	0.680636	14.314	0.0125031	-0.00403306
1.20132	0.684613	14.414	0.0126268	-0.00408708
1.20986	0.69065	14.514	0.0126962	-0.00408708
1.21782	0.69378	14.614	0.012826	-0.00407532
1.22583	0.694263	14.714	0.012978	-0.00414761
1.23408	0.700349	14.814	0.0130381	-0.00417279
1.24268	0.704184	14.914	0.0132246	-0.00422669
1.25107	0.705495	15.014	0.0132986	-0.00422278
1.25913	0.707876	15.114	0.0134242	-0.00425397
1.26753	0.71356	15.214	0.013468	-0.0042641
1.27588	0.715821	15.314	0.0135755	-0.00429271
1.28423	0.716706	15.414	0.0136509	-0.00430957
1.29253	0.722559	15.514	0.0137029	-0.00435347
1.30073	0.723978	15.614	0.0137857	-0.00444606
1.30898	0.726634	15.714	0.0138931	-0.00436746
1.31719	0.730538	15.814	0.0140025	-0.00442214
1.32583	0.735306	15.914	0.0140245	-0.00444121
1.33452	0.734419	16.014	0.014113	-0.00447798
1.34277	0.738863	16.114	0.0142896	-0.00452458
1.35078	0.741535	16.214	0.0142896	-0.00455552
1.35918	0.746318	16.314	0.0144485	-0.00454715
1.36787	0.747589	16.414	0.0145776	-0.00454715
1.37617	0.74976	16.514	0.0146671	-0.00466987
1.38408	0.750728	16.614	0.0147046	-0.00464605
1.39214	0.75604	16.714	0.0147749	-0.00468631
1.40078	0.75826	16.814	0.0148975	-0.00473043
1.40957	0.760704	16.914	0.0149579	-0.00472409
1.41763	0.767152	17.014	0.0150344	-0.00474843
1.42578	0.76648	17.114	0.0150938	-0.00476454
1.43413	0.770938	17.214	0.0152275	-0.00482693
1.44277	0.772675	17.314	0.0152596	-0.00490337
1.45117	0.779078	17.414	0.0153603	-0.00487855
1.45918	0.778992	17.514	0.0155506	-0.00488255
1.46753	0.780343	17.614	0.0156122	-0.00494445
1.47583	0.783736	17.714	0.0157448	-0.00489378
1.48423	0.788894	17.814	0.0158335	-0.00495607
1.49272	0.791444	17.914	0.0160654	-0.00498711
1.50103	0.792469	18.014	0.0161465	-0.00504777
1.50933	0.794836	18.114	0.0162027	-0.00506665
1.51743	0.797833	18.214	0.0163449	-0.00510122
1.52598	0.79751	18.314	0.016417	-0.00510366
1.53452	0.804433	18.414	0.0165258	-0.00513868
1.54268	0.804601	18.514	0.0165761	-0.00520001
1.55063	0.806572	18.614	0.0167067	-0.00521257
1.55903	0.809608	18.714	0.0167595	-0.00520518
1.56777	0.812225	18.814	0.0167913	-0.00520518
1.57617	0.815246	18.914	0.0168851	-0.00526203
1.58418	0.814669	19.014	0.0170101	-0.00526203
1.59233	0.819806	19.114	0.0170968	-0.00533677
1.60098	0.819694	19.214	0.0171337	-0.00540455
1.60967	0.822383	19.314	0.0173307	-0.0054103
1.61772	0.825564	19.414	0.0174195	-0.00543812
1.62583	0.83056	19.514	0.0174742	-0.00547541
1.63418	0.828296	19.614	0.0176206	-0.00552609
1.64282	0.830524	19.714	0.0177337	-0.00553036
1.65127	0.833135	19.814	0.0178689	-0.00554423
1.65933	0.837679	19.914	0.0179334	-0.0055823
1.66772	0.837032	20.014	0.018042	-0.00560804
1.67607	0.839728	20.114	0.0181449	-0.00569428
1.68452	0.842954	20.214	0.0181837	-0.00567563
1.69292	0.844652	20.314	0.0182848	-0.00567563
1.70117	0.846296	20.414	0.0183587	-0.00575711
1.70942	0.847575	20.514	0.0185358	-0.00581106
1.71753	0.851597	20.614	0.0186205	-0.00581178
1.72612	0.851399	20.714	0.0187542	-0.00587262
1.73467	0.855375	20.814	0.0189214	-0.00585596
1.74282	0.855674	20.914	0.0190143	-0.0059321
1.75073	0.858416	21.014	0.0191561	-0.00599758
1.75903	0.861122	21.114	0.0192458	-0.00599758
1.76768	0.862239	21.214	0.0193834	-0.00602881
1.77603	0.86336	21.314	0.019467	-0.00607288
1.78398	0.865499	21.414	0.0195678	-0.00611282
1.79204	0.866317	21.514	0.0196557	-0.00612608
1.80068	0.869303	21.614	0.0197455	-0.00620977
1.80942	0.868965	21.714	0.0198546	-0.00619989
1.81748	0.870687	21.814	0.0198781	-0.00621662
1.82559	0.8736	21.914	0.0199926	-0.00633915
1.83398	0.875476	22.014	0.0200755	-0.00626357
1.84263	0.876991	22.114	0.0202517	-0.00632454
1.85107	0.875112	22.214	0.0202517	-0.00632454
1.85908	0.876462	22.314	0.0203343	-0.00631463
1.86748	0.879087	22.414	0.0205462	-0.00638354
1.87583	0.881415	22.514	0.0206042	-0.0064366
1.88428	0.882845	22.614	0.0207608	-0.00647488
1.89268	0.883294	22.714	0.0209364	-0.00650409
1.90093	0.884344	22.814	0.0211643	-0.00659512
1.90918	0.886655	22.914	0.0211643	-0.00657314
1.91724	0.887681	23.014	0.0212299	-0.00657391
1.92573	0.886953	23.114	0.0214409	-0.00665744
1.93423	0.88899	23.214	0.0214859	-0.00666722
1.94243	0.890582	23.314	0.0216424	-0.00674295
1.95034	0.89042	23.414	0.0217066	-0.00672941
1.95879	0.892642	23.514	0.0219056	-0.00678982
1.96768	0.891437	23.614	0.021972	-0.00686405
1.97617	0.893958	23.714	0.0220279	-0.00687694
1.98418	0.895771	23.814	0.0222723	-0.00695967
1.99238	0.894582	23.914	0.0223727	-0.00699976
2.00103	0.897548	24.014	0.0225624	-0.0070439
2.00972	0.897987	24.114	0.0226473	-0.00698329
2.01782	0.898967	24.214	0.0229076	-0.00707013
2.02603	0.899729	24.314	0.0230069	-0.00708897
2.03442	0.901448	24.414	0.0230069	-0.00708897
2.04307	0.900863	24.514	0.0232397	-0.00714903
2.05156	0.90204	24.614	0.0233747	-0.00721135
2.05957	0.90587	24.714	0.0235262	-0.00723112
2.06787	0.906075	24.814	0.0235864	-0.00727298
2.07607	0.9065	24.914	0.0237714	-0.0072937
2.08442	0.90462	25.014	0.0238226	-0.00732585
2.09272	0.904902	25.114	0.023902	-0.00739173
2.10093	0.904704	25.214	0.0240391	-0.00745542
2.10918	0.907008	25.314	0.0242922	-0.00747231
2.11733	0.905571	25.414	0.0244274	-0.00757032
2.12588	0.907019	25.514	0.0244274	-0.00757032
2.13442	0.907303	25.614	0.0247085	-0.00765871
2.14263	0.905516	25.714	0.0248112	-0.00768564
2.15059	0.905383	25.814	0.0249106	-0.00771113
2.15889	0.908451	25.914	0.0250972	-0.00773432
2.16758	0.909619	26.014	0.0251806	-0.00776023
2.17598	0.910952	26.114	0.0254065	-0.00795623
2.18389	0.910898	26.214	0.0254747	-0.00792828
2.19204	0.908699	26.314	0.0256479	-0.00791177
2.20078	0.912116	26.414	0.0258945	-0.00797411
2.20962	0.907304	26.514	0.0258945	-0.00797411
2.21772	0.909137	26.614	0.0261458	-0.00808698
2.22588	0.910847	26.714	0.0261458	-0.00808698
2.23418	0.912126	26.814	0.0264461	-0.00814537
2.24277	0.912482	26.914	0.0265272	-0.00819398
2.25112	0.913104	27.014	0.0267553	-0.00824825
2.25913	0.911575	27.114	0.0270149	-0.00826059
2.26753	0.911112	27.214	0.0271239	-0.00829104
2.27593	0.911353	27.314	0.0273188	-0.00839332
2.28438	0.90946	27.414	0.0274355	-0.00843233
2.29292	0.913229	27.514	0.0276901	-0.00848287
2.30127	0.908793	27.614	0.0279389	-0.00856872
2.30957	0.911248	27.714	0.0280095	-0.00860365
2.31777	0.9112	27.814	0.0280998	-0.00859677
2.32627	0.908413	27.914	0.0282739	-0.00871523
2.33472	0.910171	28.014	0.0285621	-0.00887648
2.34292	0.910263	28.114	0.0285621	-0.00887648
2.35088	0.909398	28.214	0.0288848	-0.00898892
2.35928	0.909187	28.314	0.0290061	-0.00898244
2.36802	0.906357	28.414	0.0291028	-0.00906486
2.37637	0.905863	28.514	0.0293673	-0.00912456
2.38433	0.906784	28.614	0.0294723	-0.00912342
2.39243	0.90738	28.714	0.0298466	-0.00915894
2.40103	0.9074	28.814	0.0299324	-0.00916741
2.40957	0.908499	28.914	0.030141	-0.00923709
2.41748	0.907621	29.014	0.0303241	-0.00937728
2.42544	0.904001	29.114	0.0305154	-0.00938831
2.43379	0.906939	29.214	0.0306252	-0.00943163
2.44248	0.907455	29.314	0.0307149	-0.00947696
2.45093	0.905712	29.414	0.0310044	-0.00956776
2.45898	0.905969	29.514	0.0312252	-0.00960903
2.46738	0.906968	29.614	0.0313388	-0.00972089
2.47578	0.90434	29.714	0.0315907	-0.00976238
2.48418	0.902308	29.814	0.0318171	-0.00986026
2.49253	0.899077	29.914	0.0319698	-0.00988535
2.50083	0.902161	30.014	0.0320786	-0.00992342
2.50913	0.904167	30.114	0.0324351	-0.0100263
2.51724	0.90294	30.214	0.0325368	-0.0101348
2.52588	0.905584	30.314	0.0327793	-0.010184
2.53452	0.901946	30.414	0.0328643	-0.0101952
2.54277	0.900541	30.514	0.0332029	-0.0103389
2.55078	0.901308	30.614	0.0332953	-0.0104323
2.55918	0.900909	30.714	0.0333993	-0.0105117
2.56787	0.900806	30.814	0.033748	-0.0105575
2.57622	0.900121	30.914	0.0338866	-0.0105422
2.58408	0.901849	31.014	0.0341348	-0.0106635
2.59214	0.900727	31.114	0.0342534	-0.0107387
2.60078	0.897879	31.214	0.0346243	-0.0107688
2.60952	0.898645	31.314	0.0347721	-0.0107373
2.61758	0.898488	31.414	0.0349056	-0.0108063
2.62568	0.897788	31.514	0.0353955	-0.0108534
2.63408	0.896667	31.614	0.0353955	-0.0109187
2.64268	0.896994	31.714	0.035643	-0.0110528
2.65098	0.89491	31.814	0.0357727	-0.0110494
2.65898	0.893609	31.914	0.0361266	-0.0111819
2.66738	0.898311	32.014	0.0362315	-0.0112343
2.67578	0.897337	32.114	0.0363508	-0.0113118
2.68423	0.892664	32.214	0.036579	-0.0114082
2.69277	0.894487	32.314	0.036852	-0.0114867
2.70107	0.894448	32.414	0.0371295	-0.0115703
2.70937	0.892757	32.514	0.0371295	-0.0115703
2.71758	0.893124	32.614	0.0377035	-0.011715
2.72612	0.893593	32.714	0.0378302	-0.0118401
2.73462	0.891714	32.814	0.0379707	-0.011881
2.74272	0.891133	32.914	0.0382367	-0.0119258
2.75068	0.893205	33.014	0.0383668	-0.0120179
2.75903	0.888982	33.114	0.0387066	-0.0121558
2.76782	0.890134	33.214	0.0388458	-0.0121946
2.77617	0.891453	33.314	0.0390581	-0.0121888
2.78418	0.888236	33.414	0.0393329	-0.0123563
2.79233	0.889159	33.514	0.0394474	-0.0123234
2.80093	0.889199	33.614	0.0397378	-0.0124491
2.80957	0.88963	33.714	0.0398444	-0.012508
2.81763	0.888829	33.814	0.0402714	-0.0125602
2.82568	0.888752	33.914	0.0404347	-0.0125708
2.83403	0.886596	34.014	0.0407001	-0.0126474
2.84268	0.886536	34.114	0.0409517	-0.0127001
2.85112	0.886864	34.214	0.0410788	-0.0127483
2.85923	0.887908	34.314	0.0413748	-0.0128523
2.86763	0.886071	34.414	0.0415008	-0.0128606
2.87603	0.884346	34.514	0.0417627	-0.0129384
2.88447	0.883894	34.614	0.0419818	-0.0131454
2.89287	0.885612	34.714	0.0422668	-0.0132118
2.90112	0.884541	34.814	0.0423968	-0.0132142
2.90937	0.883753	34.914	0.0426142	-0.0133336
2.91753	0.88257	35.014	0.0429719	-0.0134164
2.92607	0.881102	35.114	0.0430825	-0.0134834
2.93457	0.881417	35.214	0.0435193	-0.0136028
2.94277	0.882651	35.314	0.0436969	-0.0136377
2.95078	0.879916	35.414	0.043958	-0.0136937
2.95913	0.881936	35.514	0.0440798	-0.0137832
2.96792	0.87763	35.614	0.044344	-0.0138821
2.97622	0.879254	35.714	0.0445438	-0.0139522
2.98418	0.880429	35.814	0.0447012	-0.0140275
2.99229	0.877525	35.914	0.044936	-0.0141054
3.00098	0.879109	36.014	0.0452016	-0.0142088
3.00972	0.875656	36.114	0.0454365	-0.014308
3.01777	0.877636	36.214	0.0456152	-0.0143749
3.02588	0.876006	36.314	0.0457658	-0.0143749
3.03423	0.876105	36.414	0.0462133	-0.0143989
3.04287	0.876438	36.514	0.0463688	-0.0144176
3.05127	0.874901	36.614	0.0466806	-0.0144969
3.05928	0.876169	36.714	0.0469438	-0.0146165
3.06763	0.874225	36.814	0.0471783	-0.0146845
3.07588	0.875226	36.914	0.0473499	-0.0147443
3.08428	0.873292	37.014	0.0474495	-0.0147866
3.09263	0.876172	37.114	0.0478658	-0.0149463
3.10083	0.874638	37.214	0.0479685	-0.014919
3.10908	0.876269	37.314	0.0482763	-0.0150839
3.11714	0.874762	37.414	0.0483991	-0.0150852
3.12559	0.872533	37.514	0.0488177	-0.0152427
3.13408	0.872248	37.614	0.048971	-0.0152996
3.14224	0.870166	37.714	0.049113	-0.0153411
3.15024	0.871184	37.814	0.0496183	-0.0154469
3.15864	0.871199	37.914	0.0497252	-0.0154812
3.16748	0.869623	38.014	0.0500179	-0.0155815
3.17598	0.873424	38.114	0.050122	-0.015583
3.18394	0.869192	38.214	0.0505794	-0.0157897
3.19214	0.869553	38.314	0.0506959	-0.01583
3.20078	0.869412	38.414	0.0508342	-0.015863
3.20947	0.86785	38.514	0.0511065	-0.0159563
3.21753	0.870873	38.614	0.0513647	-0.0160105
3.22563	0.870414	38.714	0.0518236	-0.0161524
3.23408	0.869018	38.814	0.0518236	-0.016151
3.24282	0.869041	38.914	0.0523033	-0.0163133
3.25127	0.868292	39.014	0.0524324	-0.016293
3.25933	0.870882	39.114	0.0526006	-0.0163589
3.26763	0.867385	39.214	0.0529061	-0.0164441
3.27593	0.868335	39.314	0.0532015	-0.0165305
3.28423	0.867584	39.414	0.0534839	-0.0165979
3.29258	0.865821	39.514	0.0535988	-0.0166301
3.30078	0.864169	39.614	0.0540325	-0.0167563
3.30908	0.864017	39.714	0.0541863	-0.0168599
3.31724	0.865069	39.814	0.0543019	-0.0168472
3.32578	0.863973	39.914	0.0545864	-0.0169475
3.33447	0.864362	40.014	0.0549135	-0.0171673
3.34268	0.863318	40.114	0.0552182	-0.0172844
3.35063	0.864575	40.214	0.0553937	-0.0172677
3.35894	0.860405	40.314	0.0557428	-0.0173701
3.36763	0.860784	40.414	0.0560167	-0.0175097
3.37607	0.862597	40.514	0.0561919	-0.0175231
3.38403	0.858153	40.614	0.0565044	-0.0176281
3.39224	0.857361	40.714	0.0566477	-0.0177149
3.39751	-0.0532613	40.776	0.0569747	-0.0178443