File: Raw_Data./Tensile Nozzle 0.4 mm/0 Degrees/LH0.2_0D_N0.4/Test Run 3 05-19-21 11 18 29 AM/DAQ- Crosshead, … - (Timed).csv
"File Path: G:\TT\2\Test Run 3 05-19-21 11 18 29 AM\DAQ- Crosshead, … - (Timed).csv   "
"Test: Robin_Tension_4_DIC_Signals 2"
"Test Run: Test Run 3"
"Date: 18/05/2021 13:36:08"
""
""
"Crosshead ","Load ","Time ","Strain 1 ","Strain 2 ","Strain 3 ","Strain 4 ","PoissonRatio "
"mm","kN","sec","mm/mm","mm/mm","mm/mm","mm/mm","%"
"0.000292969","-0.0915046","0.113","-4.90101e-05","-5.85266e-05","-6.84755e-05","-3.37116e-06","119.417"
"0.00371094","-0.0900327","0.313","-3.18503e-05","-6.52288e-05","-5.63914e-05","1.53866e-06","204.798"
"0.00976562","-0.0831424","0.513","6.2466e-06","-2.47998e-05","-4.66865e-05","1.21845e-05","-397.013"
"0.0166016","-0.0746514","0.713","6.10131e-05","4.54093e-05","3.90267e-05","-5.81824e-05","74.4255"
"0.0245605","-0.0674612","0.913","0.00013044","0.000109286","0.000109667","-6.10794e-05","83.7826"
"0.0318848","-0.058067","1.113","0.00022113","0.000207372","0.000202699","-0.000135878","93.7783"
"0.039209","-0.0501642","1.313","0.000286236","0.000274884","0.000223732","-0.000164789","96.034"
"0.0458984","-0.0430361","1.513","0.000303662","0.000295119","0.000277944","-0.000185226","97.1867"
"0.0532715","-0.034285","1.713","0.000384944","0.000363481","0.00034473","-0.000245243","94.4244"
"0.0606445","-0.0285406","1.913","0.000450426","0.000447606","0.000438182","-0.000185581","99.3739"
"0.0675781","-0.0212753","2.113","0.00055144","0.000543711","0.000550406","-0.000213035","98.5984"
"0.0749023","-0.0124209","2.313","0.000612504","0.000623358","0.000599906","-0.000226279","101.772"
"0.0815918","-0.0068995","2.513","0.000761937","0.000739529","0.000761491","-0.000237754","97.0591"
"0.0885254","0.00165113","2.713","0.000833941","0.000820487","0.000793179","-0.000292576","98.3867"
"0.0953613","0.0052161","2.913","0.000942023","0.000899143","0.000891439","-0.000318086","95.4481"
"0.101953","0.0143855","3.113","0.00102277","0.000952856","0.000970015","-0.000351077","93.1642"
"0.109131","0.0228678","3.313","0.00108969","0.00103156","0.00104124","-0.000437918","94.6655"
"0.116211","0.0293447","3.513","0.00107663","0.00104592","0.00106583","-0.00045539","97.1476"
"0.123242","0.0393959","3.713","0.00113407","0.0010988","0.00112807","-0.00050107","96.89"
"0.129639","0.043643","3.913","0.00117512","0.00114024","0.0011565","-0.000523816","97.0318"
"0.136035","0.0495214","4.113","0.00121156","0.0011874","0.00118511","-0.000572709","98.0059"
"0.142969","0.0596879","4.313","0.00123983","0.00120226","0.00121861","-0.000598119","96.9697"
"0.150049","0.0650078","4.513","0.00129144","0.001245","0.00128046","-0.00051768","96.404"
"0.15752","0.07249","4.713","0.00142286","0.0013537","0.00139546","-0.000559975","95.1394"
"0.163574","0.077322","4.913","0.00149733","0.00146768","0.00150045","-0.0005708","98.0198"
"0.169922","0.0857646","5.113","0.00165288","0.00161753","0.00164209","-0.000614575","97.8613"
"0.176465","0.0918898","5.313","0.00172746","0.00169278","0.00172896","-0.000628939","97.9924"
"0.183301","0.0958932","5.513","0.00187218","0.00182694","0.00180012","-0.000654691","97.5836"
"0.190967","0.105989","5.713","0.0019588","0.0018754","0.00189975","-0.000697822","95.7423"
"0.197363","0.116003","5.913","0.00201418","0.00196143","0.00199832","-0.000784999","97.3811"
"0.203564","0.120521","6.113","0.00204804","0.00201033","0.00205023","-0.00078771","98.1587"
"0.209961","0.125549","6.313","0.00210114","0.00204976","0.00210058","-0.000817178","97.5547"
"0.216455","0.131675","6.513","0.00210711","0.00205418","0.00213179","-0.000854594","97.488"
"0.223779","0.138439","6.713","0.00209918","0.00206931","0.00211884","-0.000924324","98.5771"
"0.230469","0.144956","6.913","0.00215609","0.0021013","0.00216104","-0.000933932","97.4588"
"0.237158","0.152793","7.113","0.00219425","0.00212301","0.00217917","-0.000966109","96.7533"
"0.243359","0.159855","7.313","0.00227985","0.00219572","0.00224878","-0.000824092","96.3098"
"0.249805","0.165393","7.513","0.002326","0.00225217","0.00232473","-0.000899755","96.8259"
"0.256836","0.172311","7.713","0.00243596","0.0023567","0.00244953","-0.000930127","96.7463"
"0.263379","0.179581","7.913","0.00255127","0.00250915","0.0025521","-0.000949971","98.3491"
"0.270264","0.183424","8.113","0.00268245","0.00262677","0.00268786","-0.00100079","97.9243"
"0.277002","0.191187","8.313","0.00280612","0.00275346","0.00276375","-0.00104039","98.1234"
"0.283447","0.197724","8.513","0.00288199","0.00281482","0.00287548","-0.00106505","97.6693"
"0.290332","0.205573","8.713","0.00293366","0.00291021","0.00295489","-0.00111568","99.2007"
"0.29668","0.212892","8.913","0.00296558","0.00293385","0.00299748","-0.00116159","98.9301"
"0.30332","0.217566","9.113","0.00301146","0.00298193","0.00303705","-0.00122543","99.0194"
"0.310254","0.222743","9.313","0.00303465","0.00299321","0.00307098","-0.00120619","98.6344"
"0.317139","0.230468","9.513","0.0031038","0.00304804","0.00312216","-0.00124494","98.2035"
"0.323828","0.235724","9.713","0.00311976","0.00306302","0.00314029","-0.00129058","98.1813"
"0.330078","0.242088","9.913","0.00320705","0.00311414","0.00320741","-0.00131943","97.1029"
"0.336377","0.244978","10.113","0.00327527","0.00317212","0.00325808","-0.00115522","96.8506"
"0.343164","0.25411","10.313","0.00332245","0.00325588","0.00335639","-0.00128164","97.9964"
"0.350146","0.257131","10.513","0.00343145","0.00336164","0.00346354","-0.00129967","97.9656"
"0.35752","0.267753","10.713","0.00352168","0.0034592","0.0035358","-0.00130814","98.2258"
"0.363477","0.271878","10.913","0.00360942","0.0035511","0.00364954","-0.00133935","98.3842"
"0.369824","0.277746","11.113","0.00367436","0.00360816","0.00369539","-0.00139049","98.1983"
"0.376416","0.282677","11.313","0.00374659","0.00367712","0.00377366","-0.00144633","98.1458"
"0.383203","0.290222","11.513","0.00380207","0.00372847","0.00382016","-0.00146504","98.0642"
"0.39082","0.294873","11.713","0.003853","0.00381833","0.00390814","-0.00153506","99.1002"
"0.397266","0.30147","11.913","0.00391692","0.00387658","0.00396774","-0.00157081","98.9701"
"0.403564","0.305415","12.113","0.00400496","0.00394738","0.00403766","-0.00159384","98.5623"
"0.41001","0.312908","12.313","0.00405099","0.00397586","0.00408345","-0.00164772","98.1454"
"0.416504","0.316305","12.513","0.00413628","0.0040663","0.00416855","-0.0016597","98.3081"
"0.423926","0.327306","12.713","0.00423208","0.00412153","0.00423266","-0.00168738","97.3878"
"0.430566","0.330477","12.913","0.00431819","0.00422695","0.00434598","-0.00153103","97.8871"
"0.437354","0.336356","13.113","0.00436577","0.00429438","0.00440764","-0.00165621","98.3648"
"0.443457","0.344236","13.313","0.00441064","0.00433072","0.00446574","-0.00167304","98.188"
"0.450049","0.347736","13.513","0.00446488","0.00439658","0.00451336","-0.00170899","98.4703"
"0.45708","0.351362","13.713","0.00448179","0.00443238","0.00454518","-0.00171254","98.8975"
"0.463672","0.361854","13.913","0.00454295","0.00445959","0.00457542","-0.00178345","98.1651"
"0.470557","0.365406","14.113","0.00456339","0.00450848","0.00462673","-0.00179364","98.7967"
"0.477246","0.371854","14.313","0.00468632","0.00459364","0.00472288","-0.00186571","98.0223"
"0.483643","0.374809","14.513","0.00472488","0.00465864","0.00478854","-0.00189732","98.5981"
"0.490576","0.379935","14.713","0.00486636","0.00478231","0.00490797","-0.00194704","98.2728"
"0.496875","0.385952","14.913","0.00498807","0.00489044","0.00502609","-0.00195686","98.0427"
"0.503418","0.39086","15.113","0.00507182","0.00496688","0.00512495","-0.00201352","97.9309"
"0.5104","0.398372","15.313","0.00516702","0.00508198","0.00518944","-0.00201465","98.3542"
"0.517285","0.399764","15.513","0.00523283","0.00513748","0.00527169","-0.00205564","98.1779"
"0.524023","0.407622","15.713","0.00527776","0.00520691","0.00536175","-0.00191739","98.6576"
"0.530225","0.412066","15.913","0.00530343","0.00523954","0.00541268","-0.00201742","98.7953"
"0.536426","0.41758","16.113","0.00533962","0.00529896","0.00546173","-0.00206172","99.2385"
"0.543311","0.423129","16.313","0.00535146","0.00531514","0.00546622","-0.00207699","99.3213"
"0.550244","0.427922","16.513","0.00539637","0.00535317","0.0054924","-0.00208356","99.1995"
"0.557568","0.434289","16.713","0.00541577","0.00536218","0.00550935","-0.00216064","99.0105"
"0.563525","0.437461","16.913","0.00548438","0.00538681","0.00554157","-0.00219515","98.221"
"0.569873","0.443141","17.113","0.00557536","0.00543903","0.0056094","-0.00224056","97.5548"
"0.576465","0.446394","17.313","0.0056398","0.00554811","0.00571725","-0.00226235","98.3742"
"0.583203","0.451367","17.513","0.00576183","0.00566862","0.0058569","-0.00229377","98.3823"
"0.590869","0.460419","17.713","0.00590338","0.00581502","0.00598196","-0.00231025","98.5032"
"0.597266","0.461045","17.913","0.00601879","0.00594436","0.00612507","-0.00235233","98.7634"
"0.603516","0.467157","18.113","0.00609311","0.0060505","0.00618376","-0.00237882","99.3007"
"0.609912","0.473855","18.313","0.00616273","0.00609372","0.00628567","-0.00238247","98.8802"
"0.616455","0.477759","18.513","0.00618811","0.00616395","0.00632548","-0.00230138","99.6096"
"0.623926","0.482714","18.713","0.00621702","0.00618848","0.00638128","-0.00240679","99.5409"
"0.630664","0.4887","18.913","0.00625429","0.00620408","0.00638729","-0.00242093","99.1972"
"0.637451","0.49389","19.113","0.00627609","0.00624115","0.00639834","-0.00245853","99.4433"
"0.643604","0.496972","19.313","0.00630699","0.00625185","0.00642723","-0.00248712","99.1257"
"0.650147","0.502056","19.513","0.00634272","0.00627206","0.00646316","-0.00248529","98.886"
"0.657178","0.510342","19.713","0.00641147","0.00631739","0.00650279","-0.00253774","98.5326"
"0.663672","0.514056","19.913","0.00651688","0.0063905","0.00660858","-0.00258003","98.0607"
"0.670557","0.515631","20.113","0.00659424","0.00649069","0.00671592","-0.00263969","98.4297"
"0.677197","0.522708","20.313","0.00668724","0.00659284","0.00680717","-0.00265494","98.5884"
"0.683545","0.529559","20.513","0.00680497","0.00671864","0.00694549","-0.00265262","98.7314"
"0.690381","0.528118","20.713","0.00689464","0.00681367","0.00699984","-0.00270844","98.8256"
"0.69668","0.536143","20.913","0.00698181","0.00691182","0.00711487","-0.00270428","98.9975"
"0.703271","0.539979","21.113","0.00703375","0.00697945","0.00717834","-0.00265727","99.228"
"0.710156","0.544148","21.313","0.00706422","0.0070314","0.00723616","-0.00267552","99.5354"
"0.716992","0.549723","21.513","0.00709889","0.00708681","0.00728765","-0.00275935","99.8298"
"0.72373","0.553741","21.713","0.00716418","0.00714777","0.00733898","-0.00276454","99.7709"
"0.72998","0.55709","21.913","0.00719353","0.00715701","0.00735806","-0.00277877","99.4923"
"0.736328","0.560554","22.113","0.00723694","0.00718431","0.0073771","-0.00283089","99.2728"
"0.743164","0.56915","22.313","0.00729465","0.00721765","0.00744925","-0.00289432","98.9444"
"0.750195","0.5738","22.513","0.00737156","0.00726717","0.00749738","-0.00289935","98.5839"
"0.757568","0.575735","22.713","0.00744566","0.00736771","0.00760956","-0.00291082","98.9531"
"0.763477","0.581422","22.913","0.00744713","0.00746808","0.0076954","-0.00296077","100.281"
"0.769775","0.584865","23.113","0.00752742","0.00752433","0.0077747","-0.00298344","99.959"
"0.776416","0.590493","23.313","0.00758884","0.00758597","0.00782583","-0.00299787","99.9622"
"0.783301","0.592578","23.513","0.00770031","0.00768721","0.00790013","-0.00301009","99.8299"
"0.790967","0.600505","23.713","0.00779736","0.00773306","0.0079504","-0.00299098","99.1754"
"0.797412","0.601676","23.913","0.00783126","0.00779167","0.00802111","-0.00296757","99.4945"
"0.803613","0.608536","24.113","0.00788297","0.00787098","0.00809157","-0.00298136","99.8479"
"0.810059","0.612984","24.313","0.00793081","0.00794883","0.00815758","-0.00307166","100.227"
"0.816602","0.616745","24.513","0.00797235","0.00801395","0.00826365","-0.0031204","100.522"
"0.824072","0.621403","24.713","0.00803637","0.00807591","0.00831985","-0.00309665","100.492"
"0.830762","0.627814","24.913","0.0081079","0.00815991","0.00839337","-0.00315457","100.641"
"0.8375","0.63086","25.113","0.00816652","0.00822521","0.00847277","-0.00319531","100.719"
"0.843604","0.635109","25.313","0.00827913","0.00828891","0.00857051","-0.00321178","100.118"
"0.85","0.638793","25.513","0.00830818","0.00832351","0.008616","-0.00323011","100.185"
"0.857031","0.642799","25.713","0.00836912","0.00839541","0.00866853","-0.00327029","100.314"
"0.863574","0.646602","25.913","0.00843078","0.00842279","0.00870051","-0.00328581","99.9052"
"0.87041","0.650586","26.113","0.00847714","0.00847021","0.00873372","-0.00333446","99.9183"
"0.877148","0.65152","26.313","0.00854261","0.00853848","0.00876273","-0.0033347","99.9517"
"0.883496","0.658333","26.513","0.008599","0.00856735","0.00881331","-0.00333967","99.6319"
"0.89043","0.663488","26.713","0.00865874","0.00862056","0.00888465","-0.00335461","99.5591"
"0.896631","0.666221","26.913","0.00869847","0.00871077","0.00899057","-0.00335311","100.141"
"0.90332","0.670826","27.113","0.0088033","0.00881177","0.00909661","-0.00338226","100.096"
"0.910254","0.677119","27.313","0.00888575","0.00889776","0.00919693","-0.00343687","100.135"
"0.917187","0.680265","27.513","0.00898993","0.00901749","0.00932353","-0.00345489","100.307"
"0.923926","0.687789","27.713","0.00907495","0.00911284","0.00939969","-0.0034517","100.418"
"0.92998","0.688056","27.913","0.0091619","0.00919115","0.00949063","-0.0034767","100.319"
"0.936279","0.691823","28.113","0.00923018","0.00922908","0.00953726","-0.00352931","99.9881"
"0.942969","0.695931","28.313","0.00925586","0.00927235","0.00958084","-0.0035573","100.178"
"0.949951","0.702727","28.513","0.00927618","0.00929495","0.00959813","-0.00359552","100.202"
"0.957324","0.704878","28.713","0.00937235","0.00931633","0.00962072","-0.00360143","99.4023"
"0.963428","0.71001","28.913","0.00942286","0.00936555","0.00967271","-0.00362156","99.3918"
"0.969727","0.714382","29.113","0.00940426","0.00934221","0.00966006","-0.0036529","99.3402"
"0.976318","0.718231","29.313","0.0094424","0.00938734","0.00968775","-0.00366781","99.4169"
"0.983203","0.720669","29.513","0.00949345","0.0094332","0.00976548","-0.00365112","99.3654"
"0.99082","0.725875","29.713","0.0095666","0.0095511","0.00988765","-0.00364662","99.838"
"0.997363","0.731515","29.913","0.00971182","0.00967362","0.010017","-0.00371057","99.6067"
"1.00352","0.736251","30.113","0.00980978","0.00980412","0.0101439","-0.00370663","99.9423"
"1.00996","0.738377","30.313","0.00993796","0.0099325","0.0102735","-0.00372372","99.9451"
"1.0165","0.745061","30.513","0.0100469","0.0100133","0.0103365","-0.00375306","99.6656"
"1.02388","0.746482","30.713","0.0101463","0.0100448","0.0103879","-0.00380841","98.9996"
"1.03052","0.750944","30.913","0.0102053","0.0101331","0.0104792","-0.00382662","99.2925"
"1.03721","0.75574","31.113","0.0102206","0.0101576","0.0104987","-0.00386396","99.3836"
"1.04336","0.758349","31.313","0.0102442","0.0101748","0.0105313","-0.00390208","99.3225"
"1.04985","0.762717","31.513","0.0102756","0.0101996","0.010522","-0.00388287","99.2604"
"1.05693","0.768084","31.713","0.0102737","0.0102148","0.010555","-0.0039473","99.4267"
"1.06353","0.772308","31.913","0.0103161","0.0102664","0.0105958","-0.00396775","99.5182"
"1.07041","0.77675","32.113","0.0103631","0.010283","0.0106515","-0.00396399","99.2271"
"1.07715","0.780607","32.313","0.0104744","0.0103663","0.0107618","-0.00389906","98.968"
"1.0835","0.784839","32.513","0.0105122","0.0104501","0.0108511","-0.00393791","99.4093"
"1.09043","0.787117","32.713","0.0106201","0.0105734","0.0109561","-0.00402769","99.5603"
"1.09673","0.792082","32.913","0.0107166","0.0106537","0.0110293","-0.0040149","99.4131"
"1.10342","0.795768","33.113","0.0108375","0.0107735","0.0111454","-0.00405551","99.4095"
"1.11035","0.798595","33.313","0.0109606","0.0108715","0.0112218","-0.00409134","99.1871"
"1.11724","0.803201","33.513","0.011023","0.0109172","0.0112806","-0.00413515","99.0402"
"1.12407","0.805613","33.713","0.0110735","0.0109592","0.0113514","-0.00414744","98.9678"
"1.13027","0.811202","33.913","0.0110869","0.0110326","0.0113823","-0.00420365","99.5102"
"1.13667","0.814864","34.113","0.0111221","0.0110395","0.0114192","-0.0042225","99.2573"
"1.14355","0.820782","34.313","0.0111488","0.0110863","0.0114705","-0.00426156","99.4394"
"1.15063","0.822401","34.513","0.0112055","0.0111144","0.0115405","-0.0042871","99.187"
"1.15801","0.826797","34.713","0.0112513","0.0111718","0.011573","-0.00431875","99.2934"
"1.16392","0.830859","34.913","0.0113455","0.0112378","0.0116588","-0.00434742","99.0507"
"1.17031","0.832413","35.113","0.0114151","0.0111935","0.0117377","-0.00422772","98.0587"
"1.17676","0.839442","35.313","0.0114649","0.0112793","0.0118061","-0.00433326","98.3811"
"1.18359","0.842047","35.513","0.0115693","0.0113819","0.0118824","-0.0043669","98.3802"
"1.19111","0.845024","35.713","0.0116461","0.011472","0.0119616","-0.00436489","98.5051"
"1.19741","0.850023","35.913","0.0117389","0.0115731","0.0120328","-0.00441885","98.5876"
"1.20356","0.853065","36.113","0.0117821","0.0116118","0.0120752","-0.004401","98.5546"
"1.20991","0.856363","36.313","0.0118484","0.0116922","0.0121366","-0.00447642","98.6817"
"1.21641","0.85985","36.513","0.0118752","0.011729","0.0121822","-0.00453074","98.7689"
"1.22373","0.861438","36.713","0.0119397","0.0118314","0.0122692","-0.00456609","99.0929"
"1.23042","0.868766","36.913","0.0119799","0.0118718","0.0123456","-0.00463124","99.0977"
"1.23721","0.869599","37.113","0.0120647","0.0119182","0.0124289","-0.00461534","98.7857"
"1.24341","0.87336","37.313","0.0121373","0.0119619","0.012513","-0.00465272","98.5549"
"1.2499","0.875369","37.513","0.0122198","0.0120154","0.0125824","-0.00466632","98.3273"
"1.25698","0.879987","37.713","0.012319","0.0120576","0.0126357","-0.00467247","97.8781"
"1.26353","0.885687","37.913","0.0123898","0.0121535","0.0127411","-0.00458807","98.0928"
"1.27036","0.889322","38.113","0.0124337","0.0122153","0.0127643","-0.00464884","98.2435"
"1.2771","0.890968","38.313","0.0124684","0.0122877","0.0127929","-0.00470261","98.5507"
"1.2834","0.896131","38.513","0.0125275","0.0123393","0.0128338","-0.00471673","98.4977"
"1.29038","0.897609","38.713","0.01254","0.0123777","0.0128549","-0.00475409","98.7057"
"1.29663","0.903308","38.913","0.0125743","0.0124101","0.0129054","-0.00479618","98.6942"
"1.30337","0.905378","39.113","0.0126259","0.012482","0.0129441","-0.00486018","98.8603"
"1.31035","0.912226","39.313","0.0127214","0.0125407","0.0130466","-0.0048815","98.5796"
"1.31724","0.910251","39.513","0.0127898","0.0126251","0.0131568","-0.00493171","98.7123"
"1.32407","0.917607","39.713","0.0128869","0.0127119","0.013269","-0.00496327","98.642"
"1.33022","0.919723","39.913","0.0130018","0.0128185","0.0134078","-0.00495358","98.5902"
"1.33667","0.922388","40.113","0.0130913","0.0128794","0.0134895","-0.00501984","98.3814"
"1.34346","0.92572","40.313","0.0132019","0.0129675","0.0135722","-0.00503732","98.2245"
"1.35049","0.93074","40.513","0.0132755","0.0130354","0.013612","-0.00504464","98.1914"
"1.35776","0.934363","40.713","0.013325","0.0131106","0.0136516","-0.0049366","98.391"
"1.36362","0.936332","40.913","0.0133322","0.0131274","0.0136642","-0.00503405","98.4639"
"1.36992","0.941202","41.113","0.0133543","0.0131623","0.0136718","-0.00505009","98.5623"
"1.37637","0.944431","41.313","0.0133456","0.0131656","0.0136831","-0.00506611","98.6512"
"1.38325","0.947785","41.513","0.0133727","0.0132255","0.0137089","-0.00513806","98.8993"
"1.39092","0.952771","41.713","0.0134272","0.0132321","0.0137334","-0.00518918","98.547"
"1.39736","0.954699","41.913","0.0134899","0.0132737","0.0138506","-0.00520594","98.3973"
"1.40352","0.958204","42.113","0.0136039","0.0133614","0.0139672","-0.00525633","98.2174"
"1.40996","0.964227","42.313","0.0136699","0.0134262","0.0140768","-0.0053008","98.2172"
"1.4165","0.965209","42.513","0.0138199","0.013553","0.0142315","-0.00533669","98.0687"
"1.42388","0.968247","42.713","0.0139019","0.0136187","0.0143069","-0.00534762","97.9629"
"1.43057","0.971465","42.913","0.0140318","0.013808","0.0144012","-0.00537732","98.4051"
"1.4373","0.974503","43.113","0.0141297","0.0138581","0.0144802","-0.00541377","98.0778"
"1.44351","0.97917","43.313","0.0141728","0.0139419","0.0145068","-0.00526458","98.3708"
"1.44995","0.979321","43.513","0.0141866","0.0139595","0.0145418","-0.00530214","98.3992"
"1.45698","0.985227","43.713","0.0141789","0.0139962","0.0145689","-0.00539454","98.7115"
"1.46348","0.98646","43.913","0.014225","0.0140537","0.0145757","-0.00540465","98.7958"
"1.47036","0.989571","44.113","0.0142284","0.0140346","0.0146146","-0.00542834","98.6379"
"1.4771","0.994103","44.313","0.0142722","0.014062","0.0146254","-0.00550683","98.5272"
"1.48345","0.999066","44.513","0.0143188","0.0140808","0.0147244","-0.00554498","98.3378"
"1.49043","1.00212","44.713","0.0143995","0.0141306","0.0148046","-0.00559027","98.1326"
"1.49673","1.00486","44.913","0.0144814","0.0141934","0.0149049","-0.00563782","98.0112"
"1.50342","1.00763","45.113","0.0145842","0.0143049","0.0150103","-0.00566416","98.0849"
"1.51035","1.00768","45.313","0.014675","0.0143987","0.0150898","-0.00569383","98.1172"
"1.51724","1.01464","45.513","0.0148085","0.0145694","0.0152189","-0.00575654","98.3854"
"1.52393","1.01944","45.713","0.0148958","0.0146356","0.0152601","-0.00576145","98.2532"
"1.53008","1.0209","45.913","0.0149462","0.0147229","0.0153168","-0.00578936","98.506"
"1.53643","1.02352","46.113","0.0149846","0.0147712","0.0153592","-0.00564009","98.5759"
"1.54321","1.02546","46.313","0.0150047","0.0148283","0.0154017","-0.0056802","98.8244"
"1.55015","1.02953","46.513","0.0150335","0.0148771","0.0154471","-0.00576068","98.9597"
"1.55752","1.03259","46.713","0.0150635","0.0148584","0.0154967","-0.00579639","98.6384"
"1.56343","1.035","46.913","0.0151149","0.0149103","0.0155664","-0.00583762","98.6464"
"1.56978","1.03875","47.113","0.0151491","0.0148972","0.0156014","-0.00588079","98.3372"
"1.57637","1.04373","47.313","0.0152222","0.0149728","0.0156782","-0.00590405","98.3616"
"1.5832","1.04702","47.513","0.0153062","0.0149897","0.0157521","-0.00596502","97.9322"
"1.59077","1.05034","47.713","0.0153894","0.0151024","0.0158491","-0.00599804","98.1351"
"1.59722","1.05097","47.913","0.0154463","0.0152127","0.0158894","-0.0060513","98.4877"
"1.60342","1.05352","48.113","0.0155513","0.0152858","0.0159619","-0.00607648","98.2928"
"1.60991","1.05924","48.313","0.0155882","0.0153674","0.0160341","-0.00609592","98.5835"
"1.61646","1.0595","48.513","0.0156611","0.0154568","0.0160598","-0.00612774","98.6955"
"1.62383","1.06445","48.713","0.0157654","0.0155229","0.0161604","-0.00617362","98.4618"
"1.63052","1.06438","48.913","0.0157992","0.0155882","0.0162035","-0.0060218","98.6645"
"1.63726","1.06941","49.113","0.0158514","0.0156514","0.0163043","-0.00604803","98.7383"
"1.64351","1.07337","49.313","0.0158949","0.0157054","0.0163654","-0.00614994","98.8078"
"1.65","1.07492","49.513","0.0159724","0.0157365","0.0164629","-0.00615896","98.5231"
"1.65708","1.07923","49.713","0.0160102","0.0157816","0.0165334","-0.00620258","98.5722"
"1.66367","1.08238","49.913","0.0161059","0.0158228","0.0166138","-0.0062479","98.2423"
"1.67061","1.0842","50.113","0.0161871","0.0158667","0.0166518","-0.00628717","98.0206"
"1.67734","1.08426","50.313","0.0162204","0.0159438","0.0167068","-0.00632878","98.2947"
"1.68364","1.08905","50.513","0.0162478","0.0160088","0.0167323","-0.00636043","98.529"
"1.69062","1.09154","50.713","0.0163208","0.0160724","0.016777","-0.00639249","98.478"
"1.69683","1.09629","50.913","0.016354","0.0161592","0.0168347","-0.0063946","98.8089"
"1.70347","1.09965","51.113","0.0163831","0.0161973","0.0168518","-0.00646635","98.8659"
"1.71035","1.09942","51.313","0.0164476","0.0162361","0.0169043","-0.00647761","98.7141"
"1.71724","1.10386","51.513","0.0165139","0.0163059","0.0169786","-0.0065042","98.7405"
"1.72402","1.10475","51.713","0.0165979","0.0163722","0.0170886","-0.00640428","98.6402"
"1.73022","1.10886","51.913","0.0166497","0.01644","0.0171664","-0.00643393","98.7405"
"1.73652","1.11253","52.113","0.0167402","0.016501","0.0172974","-0.00649956","98.5711"
"1.74336","1.11563","52.313","0.0168132","0.0165572","0.0173741","-0.00655496","98.4774"
"1.75029","1.11395","52.513","0.0169172","0.0166695","0.0174454","-0.00653744","98.5358"
"1.75767","1.11938","52.713","0.0170183","0.0167186","0.0175177","-0.0065761","98.239"
"1.76367","1.12057","52.913","0.0170661","0.0168347","0.0175817","-0.00666656","98.6441"
"1.76997","1.12129","53.113","0.0171013","0.0168819","0.0176093","-0.00671234","98.7171"
"1.77656","1.12647","53.313","0.0170983","0.0169104","0.0176085","-0.00673981","98.9011"
"1.78335","1.12774","53.513","0.0171093","0.0169218","0.0176362","-0.00676287","98.9041"
"1.79092","1.13241","53.713","0.0171603","0.0169572","0.0176381","-0.00680905","98.8165"
"1.79731","1.13402","53.913","0.0171674","0.0169835","0.0176798","-0.00681896","98.9288"
"1.80347","1.13682","54.113","0.0172091","0.0170005","0.0177359","-0.00682635","98.7879"
"1.80991","1.13972","54.313","0.0172923","0.0170637","0.0178545","-0.0067509","98.678"
"1.81646","1.14084","54.513","0.0174092","0.0171233","0.0179051","-0.00675147","98.3578"
"1.82388","1.14378","54.713","0.0174702","0.0172122","0.0180607","-0.00681792","98.5232"
"1.83062","1.14438","54.913","0.0176118","0.0173443","0.0182247","-0.00684687","98.4811"
"1.83735","1.14871","55.113","0.0177191","0.0174599","0.018308","-0.00688291","98.5372"
"1.84351","1.15209","55.313","0.0178032","0.0175871","0.0183763","-0.00691708","98.7862"
"1.85005","1.15349","55.513","0.0178536","0.0176326","0.0184289","-0.00698661","98.7622"
"1.85708","1.15608","55.713","0.0178985","0.0177166","0.018458","-0.00701427","98.9837"
"1.86362","1.16001","55.913","0.0179026","0.0177614","0.0184859","-0.00704676","99.2113"
"1.87046","1.16043","56.113","0.017934","0.0178168","0.0185388","-0.00704891","99.3465"
"1.87715","1.16422","56.313","0.0179658","0.0178018","0.0185071","-0.00705903","99.0872"
"1.88345","1.16729","56.513","0.0179364","0.0177951","0.0185248","-0.00710513","99.2122"
"1.89033","1.16805","56.713","0.0179636","0.0177999","0.0185622","-0.00713586","99.0887"
"1.89663","1.17004","56.913","0.018026","0.0178353","0.0186427","-0.00715473","98.9421"
"1.90332","1.1723","57.113","0.0180899","0.017853","0.0187022","-0.00705146","98.6904"
"1.91025","1.1745","57.313","0.0181466","0.0179421","0.0188277","-0.00710243","98.8731"
"1.91714","1.17325","57.513","0.0181864","0.0180304","0.0189566","-0.00715717","99.1422"
"1.92393","1.17799","57.713","0.018291","0.0181361","0.0190336","-0.00716787","99.1531"
"1.93013","1.17867","57.913","0.0184137","0.0182715","0.0191353","-0.00720118","99.2278"
"1.93647","1.17872","58.113","0.018482","0.0183344","0.0191763","-0.00724136","99.2014"
"1.94331","1.18167","58.313","0.0185915","0.0184388","0.0192367","-0.00724779","99.1787"
"1.95029","1.18143","58.513","0.0186229","0.0185052","0.0192861","-0.00727005","99.368"
"1.95771","1.18775","58.713","0.0186679","0.0185629","0.0193236","-0.00730291","99.4375"
"1.96362","1.1897","58.913","0.0186755","0.0185934","0.0193542","-0.00732678","99.5604"
"1.96992","1.18627","59.113","0.018707","0.0186309","0.0193758","-0.00731774","99.5932"
"1.97646","1.18716","59.313","0.0186671","0.0186239","0.0194208","-0.0072933","99.7686"
"1.9832","1.18836","59.513","0.0187443","0.0186455","0.0193919","-0.00730082","99.4729"
"1.9894","-0.093728","59.673","0.0187515","0.0186812","0.0194236","-0.00734978","99.6251"