File: DSC/Crystallisation samples/Nozzle 1 mm/0 Degrees/LH02_0D_N1/Test 1.csv
Temperature,Heat Flow
30.05,8.0741
30.07,8.1522
30.13,8.5913
30.24,8.848
30.36,8.7292
30.49,8.4437
30.63,8.2154
30.76,8.1351
30.89,8.1953
31.02,8.3431
31.15,8.5331
31.29,8.7351
31.43,8.9307
31.56,9.1074
31.69,9.2638
31.82,9.3942
31.95,9.5045
32.09,9.5999
32.22,9.6832
32.35,9.7542
32.49,9.8145
32.62,9.8604
32.75,9.8983
32.88,9.9311
33.02,9.9612
33.15,9.9876
33.28,10.0097
33.42,10.0242
33.55,10.0367
33.68,10.0492
33.82,10.0613
33.95,10.0735
34.08,10.0831
34.21,10.0868
34.34,10.0898
34.48,10.0946
34.61,10.1008
34.74,10.1067
34.88,10.1113
35.02,10.1119
35.15,10.1128
35.27,10.1162
35.41,10.1212
35.54,10.1271
35.68,10.1287
35.81,10.1283
35.94,10.1292
36.08,10.1329
36.21,10.1371
36.34,10.1417
36.48,10.1422
36.61,10.1421
36.74,10.144
36.88,10.1473
37.01,10.1527
37.14,10.1577
37.27,10.1586
37.41,10.1579
37.54,10.16
37.68,10.1649
37.81,10.1688
37.94,10.1705
38.08,10.1683
38.21,10.1678
38.34,10.17
38.47,10.1726
38.6,10.1752
38.74,10.1754
38.88,10.1747
39.01,10.1753
39.14,10.1771
39.27,10.1802
39.4,10.1841
39.54,10.1837
39.67,10.1818
39.81,10.1838
39.94,10.1873
40.08,10.1913
40.2,10.1929
40.34,10.1913
40.47,10.1904
40.6,10.1923
40.74,10.1955
40.88,10.1997
41,10.2
41.13,10.1974
41.27,10.1967
41.4,10.1992
41.54,10.2033
41.67,10.2074
41.8,10.2067
41.93,10.2052
42.06,10.2053
42.2,10.2085
42.34,10.2127
42.47,10.2137
42.6,10.2112
42.73,10.2095
42.87,10.2113
43,10.2154
43.13,10.2201
43.26,10.2201
43.39,10.2187
43.53,10.2198
43.66,10.2228
43.8,10.2271
43.93,10.2299
44.07,10.2281
44.2,10.2268
44.33,10.2274
44.46,10.2294
44.59,10.2331
44.73,10.2328
44.86,10.2301
44.99,10.229
45.13,10.2311
45.26,10.234
45.4,10.2362
45.53,10.2337
45.66,10.2309
45.8,10.2318
45.93,10.2345
46.06,10.238
46.19,10.2386
46.33,10.2367
46.46,10.2368
46.59,10.2388
46.73,10.2421
46.86,10.2447
46.99,10.2439
47.13,10.2415
47.26,10.2422
47.39,10.2463
47.53,10.2511
47.66,10.2509
47.8,10.2483
47.93,10.2485
48.05,10.251
48.19,10.2552
48.33,10.2583
48.46,10.2577
48.59,10.2559
48.73,10.2556
48.86,10.2578
48.99,10.2632
49.13,10.2647
49.25,10.2631
49.39,10.2618
49.52,10.2647
49.66,10.2691
49.79,10.2727
49.92,10.2728
50.06,10.2723
50.19,10.2733
50.33,10.277
50.46,10.2823
50.59,10.2828
50.73,10.281
50.86,10.281
50.99,10.2841
51.12,10.2902
51.26,10.293
51.39,10.2917
51.52,10.2916
51.65,10.2945
51.78,10.2986
51.92,10.3025
52.05,10.3015
52.19,10.3012
52.32,10.3035
52.45,10.3078
52.58,10.314
52.72,10.3162
52.85,10.3155
52.99,10.3166
53.12,10.3203
53.25,10.3275
53.38,10.3324
53.52,10.3331
53.65,10.3336
53.78,10.3387
53.92,10.3451
54.05,10.3516
54.19,10.3541
54.32,10.3553
54.45,10.3588
54.59,10.3661
54.72,10.3751
54.85,10.3799
54.99,10.3841
55.12,10.391
55.24,10.3993
55.38,10.4095
55.52,10.4167
55.65,10.4166
55.78,10.4164
55.92,10.4198
56.05,10.4245
56.18,10.4283
56.32,10.4282
56.45,10.4292
56.58,10.4337
56.72,10.4428
56.84,10.4569
56.98,10.4664
57.11,10.4716
57.25,10.4764
57.39,10.4845
57.52,10.4953
57.65,10.504
57.78,10.5085
57.91,10.5135
58.05,10.5229
58.18,10.5356
58.31,10.5488
58.45,10.5591
58.58,10.5686
58.71,10.5802
58.84,10.5959
58.99,10.6129
59.11,10.626
59.25,10.6363
59.38,10.649
59.52,10.6644
59.65,10.6811
59.78,10.6948
59.91,10.7063
60.05,10.7171
60.18,10.7272
60.31,10.738
60.45,10.7446
60.58,10.7461
60.71,10.748
60.84,10.7512
60.98,10.7537
61.11,10.7538
61.25,10.7494
61.38,10.7458
61.52,10.7451
61.65,10.7451
61.78,10.7457
61.91,10.743
62.04,10.7427
62.18,10.7461
62.31,10.7517
62.45,10.7567
62.58,10.7536
62.71,10.75
62.84,10.7496
62.98,10.7503
63.11,10.7526
63.24,10.7506
63.38,10.745
63.51,10.7427
63.64,10.7478
63.78,10.7564
63.91,10.7618
64.04,10.7648
64.17,10.7681
64.31,10.7713
64.45,10.7828
64.58,10.8014
64.71,10.816
64.84,10.8256
64.98,10.8334
65.11,10.839
65.25,10.8381
65.38,10.8235
65.51,10.8024
65.64,10.7873
65.78,10.7767
65.91,10.7678
66.05,10.7526
66.17,10.7328
66.31,10.7139
66.44,10.7094
66.58,10.7099
66.72,10.6977
66.84,10.6726
66.98,10.6471
67.11,10.6264
67.24,10.615
67.38,10.6062
67.51,10.5896
67.64,10.5735
67.78,10.5656
67.91,10.5663
68.05,10.5647
68.18,10.563
68.31,10.5704
68.45,10.5801
68.58,10.5862
68.71,10.586
68.84,10.5831
68.98,10.5846
69.11,10.5895
69.25,10.5991
69.38,10.6104
69.51,10.6199
69.64,10.6289
69.78,10.6402
69.91,10.6528
70.04,10.6617
70.18,10.6642
70.31,10.6691
70.44,10.6811
70.58,10.6989
70.71,10.7151
70.84,10.7272
70.98,10.741
71.11,10.7582
71.25,10.7747
71.38,10.7875
71.51,10.7946
71.64,10.7983
71.78,10.8021
71.9,10.8073
72.05,10.8127
72.17,10.8156
72.31,10.8169
72.45,10.822
72.58,10.8309
72.72,10.8402
72.84,10.8395
72.98,10.8364
73.12,10.8378
73.25,10.8421
73.38,10.8438
73.51,10.8418
73.64,10.8419
73.78,10.8462
73.92,10.8531
74.05,10.8592
74.18,10.8607
74.32,10.8617
74.45,10.8644
74.58,10.8681
74.71,10.8721
74.85,10.8743
74.98,10.8749
75.12,10.877
75.25,10.8811
75.38,10.8857
75.52,10.8846
75.64,10.8823
75.78,10.8841
75.92,10.8883
76.05,10.8912
76.18,10.8891
76.32,10.8881
76.45,10.8892
76.58,10.8923
76.72,10.8949
76.84,10.8925
76.98,10.8902
77.12,10.8901
77.25,10.8933
77.38,10.8976
77.52,10.8985
77.65,10.8968
77.78,10.8973
77.92,10.9013
78.05,10.9027
78.18,10.9024
78.32,10.9046
78.45,10.9049
78.58,10.9051
78.71,10.9078
78.85,10.906
78.98,10.9047
79.12,10.9093
79.25,10.9115
79.38,10.9097
79.51,10.9099
79.65,10.9111
79.78,10.9101
79.91,10.909
80.04,10.909
80.17,10.9073
80.31,10.9081
80.45,10.9094
80.58,10.9086
80.71,10.9077
80.84,10.9086
80.97,10.9066
81.11,10.9053
81.24,10.9081
81.38,10.9072
81.51,10.9052
81.64,10.9077
81.78,10.9089
81.91,10.9079
82.03,10.9077
82.17,10.9054
82.3,10.9044
82.44,10.9055
82.57,10.9035
82.7,10.8989
82.84,10.8975
82.97,10.8986
83.1,10.8965
83.23,10.8963
83.37,10.8969
83.5,10.8939
83.64,10.8918
83.77,10.8917
83.9,10.8907
84.04,10.8905
84.17,10.8912
84.3,10.8881
84.43,10.8862
84.57,10.8875
84.7,10.8836
84.83,10.8788
84.96,10.8793
85.09,10.8784
85.23,10.876
85.37,10.8768
85.5,10.8772
85.63,10.8756
85.76,10.8748
85.89,10.8704
86.03,10.8653
86.16,10.8636
86.3,10.8588
86.42,10.852
86.56,10.8497
86.7,10.8491
86.83,10.8449
86.96,10.8412
87.09,10.8403
87.23,10.8373
87.36,10.8324
87.49,10.83
87.63,10.8282
87.76,10.8284
87.89,10.8282
88.03,10.8229
88.15,10.8186
88.29,10.8168
88.42,10.8101
88.56,10.8012
88.68,10.7944
88.82,10.7871
88.95,10.7795
89.09,10.7741
89.22,10.7674
89.35,10.7599
89.48,10.7547
89.62,10.7487
89.75,10.7428
89.88,10.7407
90.02,10.7369
90.14,10.7291
90.28,10.7244
90.42,10.7212
90.55,10.7147
90.68,10.7085
90.81,10.7033
90.95,10.6979
91.08,10.6938
91.22,10.6883
91.34,10.6805
91.48,10.6752
91.62,10.6712
91.75,10.6627
91.88,10.6548
92.02,10.6522
92.15,10.6458
92.28,10.638
92.42,10.6335
92.55,10.6307
92.68,10.6282
92.82,10.6245
92.95,10.6174
93.08,10.6116
93.21,10.6078
93.35,10.5998
93.48,10.5898
93.62,10.5875
93.75,10.5861
93.88,10.5805
94.02,10.5748
94.14,10.5658
94.28,10.5569
94.42,10.5527
94.55,10.5472
94.68,10.5408
94.82,10.5364
94.95,10.5301
95.08,10.5236
95.22,10.5199
95.34,10.5145
95.48,10.5074
95.62,10.5022
95.75,10.4967
95.88,10.4881
96.01,10.4819
96.15,10.4758
96.28,10.4683
96.42,10.4619
96.55,10.4566
96.68,10.4493
96.81,10.4421
96.95,10.4356
97.08,10.4275
97.21,10.4211
97.34,10.4165
97.48,10.4096
97.61,10.4041
97.74,10.3999
97.88,10.3943
98.01,10.3902
98.14,10.3892
98.28,10.3856
98.41,10.3819
98.54,10.3787
98.67,10.3703
98.81,10.3614
98.94,10.3551
99.08,10.3474
99.2,10.3409
99.34,10.3363
99.47,10.3295
99.61,10.3224
99.73,10.3186
99.87,10.3127
100,10.3079
100.14,10.3071
100.27,10.3041
100.4,10.2994
100.54,10.2972
100.67,10.2931
100.8,10.2879
100.94,10.2852
101.07,10.2812
101.2,10.2764
101.33,10.2738
101.47,10.2684
101.6,10.2617
101.73,10.2579
101.87,10.2517
102,10.2454
102.13,10.2437
102.27,10.2404
102.4,10.2342
102.53,10.2307
102.67,10.2279
102.8,10.2231
102.93,10.2195
103.07,10.2151
103.2,10.2094
103.33,10.2072
103.47,10.2029
103.6,10.1962
103.73,10.1939
103.86,10.1917
104,10.1874
104.13,10.1849
104.26,10.1822
104.4,10.1769
104.53,10.1729
104.66,10.1682
104.79,10.1618
104.93,10.1585
105.06,10.1554
105.2,10.1508
105.32,10.1482
105.46,10.1454
105.6,10.1418
105.73,10.1403
105.86,10.1375
105.99,10.133
106.13,10.13
106.26,10.1267
106.39,10.1208
106.53,10.1159
106.66,10.1135
106.79,10.1082
106.92,10.1064
107.05,10.1068
107.19,10.1037
107.33,10.1019
107.45,10.1006
107.59,10.0974
107.73,10.0952
107.85,10.0935
107.99,10.0887
108.12,10.0856
108.25,10.0849
108.39,10.0824
108.52,10.0829
108.65,10.0826
108.78,10.0799
108.92,10.0787
109.05,10.08
109.19,10.0789
109.32,10.0802
109.45,10.0816
109.59,10.0816
109.72,10.0825
109.85,10.0793
109.99,10.068
110.13,10.0618
110.25,10.0617
110.38,10.0642
110.52,10.0706
110.65,10.0794
110.79,10.084
110.92,10.0906
111.05,10.0983
111.18,10.1029
111.32,10.1082
111.45,10.1137
111.58,10.1178
111.72,10.1236
111.85,10.1309
111.98,10.1343
112.12,10.139
112.25,10.1448
112.38,10.1493
112.52,10.154
112.65,10.1604
112.78,10.1651
112.91,10.1711
113.05,10.1784
113.18,10.1848
113.32,10.1934
113.45,10.2004
113.58,10.2042
113.72,10.2112
113.85,10.2189
113.98,10.2255
114.11,10.2345
114.24,10.2444
114.38,10.2502
114.52,10.2589
114.65,10.2696
114.78,10.278
114.91,10.2882
115.04,10.2985
115.18,10.3044
115.31,10.3139
115.45,10.3241
115.58,10.3315
115.71,10.3406
115.85,10.3495
115.98,10.3561
116.11,10.3656
116.25,10.3746
116.38,10.3826
116.51,10.3926
116.65,10.4024
116.78,10.4081
116.91,10.4166
117.05,10.427
117.18,10.4368
117.31,10.4478
117.44,10.4574
117.58,10.4652
117.71,10.4763
117.84,10.4857
117.98,10.4944
118.11,10.5052
118.24,10.5132
118.37,10.5207
118.51,10.5319
118.65,10.5396
118.78,10.5476
118.91,10.5589
119.04,10.5667
119.18,10.5735
119.31,10.582
119.44,10.5905
119.58,10.5973
119.71,10.606
119.84,10.6127
119.98,10.6189
120.11,10.6285
120.24,10.6349
120.38,10.6417
120.51,10.6513
120.64,10.6582
120.78,10.6629
120.91,10.6705
121.04,10.677
121.18,10.6842
121.3,10.6928
121.44,10.6991
121.58,10.7054
121.71,10.7132
121.84,10.7165
121.97,10.7246
122.11,10.7342
122.24,10.7398
122.37,10.7447
122.51,10.7518
122.64,10.7577
122.77,10.7638
122.91,10.7704
123.04,10.7725
123.17,10.7782
123.3,10.7854
123.44,10.7902
123.57,10.7953
123.7,10.8016
123.84,10.806
123.97,10.8128
124.1,10.8186
124.24,10.8219
124.37,10.827
124.5,10.8315
124.64,10.8318
124.77,10.8355
124.9,10.8416
125.03,10.8458
125.17,10.8504
125.3,10.854
125.44,10.8569
125.57,10.8634
125.7,10.8659
125.83,10.8667
125.97,10.8721
126.1,10.8756
126.23,10.8775
126.37,10.8835
126.5,10.886
126.63,10.8881
126.77,10.888
126.9,10.8868
127.03,10.8887
127.16,10.8945
127.3,10.8978
127.43,10.9011
127.57,10.907
127.7,10.9101
127.83,10.9128
127.97,10.918
128.1,10.9219
128.23,10.9266
128.36,10.9315
128.5,10.9347
128.63,10.9407
128.77,10.9477
128.9,10.9496
129.03,10.9534
129.17,10.9565
129.3,10.9534
129.43,10.9514
129.56,10.9539
129.7,10.9565
129.83,10.9587
129.97,10.9594
130.1,10.9611
130.24,10.9682
130.37,10.975
130.5,10.9791
130.63,10.9871
130.77,10.9933
130.9,10.9994
131.04,11.0065
131.17,11.009
131.3,11.0111
131.43,11.0172
131.57,11.0193
131.7,11.0213
131.83,11.026
131.96,11.0272
132.1,11.0283
132.24,11.0314
132.37,11.0329
132.5,11.0377
132.63,11.0454
132.77,11.0475
132.9,11.049
133.03,11.0531
133.17,11.0549
133.3,11.0598
133.43,11.066
133.57,11.0702
133.7,11.0745
133.83,11.0783
133.96,11.0813
134.1,11.0858
134.23,11.088
134.36,11.0784
134.5,11.0734
134.63,11.0739
134.77,11.0786
134.9,11.0865
135.03,11.0956
135.16,11.1044
135.3,11.1126
135.43,11.1147
135.56,11.1177
135.7,11.1242
135.83,11.1284
135.96,11.1328
136.1,11.1383
136.23,11.1418
136.36,11.1466
136.5,11.1512
136.63,11.1543
136.76,11.1599
136.9,11.1658
137.03,11.1702
137.17,11.1761
137.3,11.1821
137.43,11.1844
137.56,11.1881
137.69,11.1925
137.83,11.1966
137.97,11.2043
138.1,11.2089
138.23,11.2129
138.36,11.2214
138.5,11.227
138.63,11.2311
138.77,11.2365
138.9,11.2408
139.03,11.2463
139.17,11.252
139.3,11.2564
139.43,11.2626
139.57,11.2702
139.7,11.2726
139.83,11.2782
139.97,11.2863
140.1,11.2904
140.23,11.2954
140.37,11.3003
140.5,11.3053
140.63,11.3139
140.77,11.3194
140.9,11.3255
141.03,11.3354
141.17,11.3438
141.3,11.3513
141.44,11.355
141.57,11.3621
141.7,11.3689
141.84,11.3769
141.97,11.3828
142.1,11.39
142.23,11.4005
142.36,11.4071
142.5,11.4164
142.63,11.4241
142.77,11.432
142.9,11.4385
143.03,11.4458
143.16,11.4542
143.3,11.4642
143.43,11.4725
143.56,11.4801
143.7,11.4909
143.83,11.5014
143.96,11.5111
144.1,11.5186
144.23,11.5296
144.36,11.5397
144.5,11.55
144.63,11.5588
144.76,11.5684
144.89,11.5812
145.03,11.5942
145.16,11.6068
145.29,11.619
145.43,11.6343
145.56,11.648
145.69,11.663
145.82,11.678
145.95,11.694
146.09,11.7088
146.22,11.7233
146.35,11.7411
146.49,11.7594
146.63,11.7772
146.75,11.7921
146.89,11.811
147.02,11.8317
147.15,11.8545
147.29,11.8762
147.42,11.8979
147.55,11.9226
147.68,11.9475
147.82,11.9697
147.95,11.993
148.08,12.0214
148.22,12.0494
148.35,12.0781
148.48,12.1065
148.61,12.1395
148.75,12.1721
148.88,12.2033
149.02,12.2356
149.15,12.2705
149.28,12.3089
149.42,12.3452
149.55,12.3838
149.68,12.423
149.81,12.465
149.94,12.5043
150.08,12.5455
150.21,12.5889
150.35,12.633
150.47,12.6778
150.61,12.7208
150.75,12.7677
150.88,12.8137
151.01,12.8593
151.14,12.902
151.28,12.9448
151.41,12.9861
151.55,13.0269
151.68,13.0646
151.81,13.1014
151.94,13.1369
152.07,13.1693
152.21,13.198
152.34,13.2236
152.47,13.2491
152.6,13.2679
152.74,13.2869
152.87,13.3042
153,13.3216
153.13,13.3333
153.27,13.3395
153.4,13.3446
153.53,13.3499
153.67,13.3541
153.8,13.355
153.93,13.3569
154.06,13.3565
154.19,13.3565
154.33,13.35
154.47,13.3455
154.6,13.3377
154.73,13.3293
154.86,13.3183
155,13.3054
155.13,13.2914
155.26,13.2747
155.4,13.2557
155.53,13.2324
155.66,13.2094
155.8,13.1821
155.93,13.1505
156.06,13.1134
156.19,13.0746
156.33,13.032
156.46,12.9825
156.59,12.9241
156.72,12.8607
156.86,12.794
157,12.7199
157.13,12.6442
157.26,12.5617
157.4,12.4751
157.53,12.38
157.66,12.2861
157.8,12.1945
157.93,12.1029
158.06,12.0095
158.19,11.9202
158.33,11.8367
158.46,11.7604
158.6,11.6916
158.73,11.6256
158.86,11.5709
159,11.5206
159.13,11.476
159.26,11.4341
159.4,11.4014
159.53,11.3748
159.66,11.3484
159.8,11.3179
159.93,11.2862
160.06,11.2621
160.19,11.2408
160.33,11.2251
160.46,11.2113
160.6,11.2037
160.73,11.1937
160.86,11.1855
161,11.1772
161.13,11.1744
161.26,11.1692
161.4,11.1617
161.53,11.1568
161.66,11.1548
161.79,11.1536
161.93,11.1511
162.06,11.1494
162.19,11.1471
162.33,11.1454
162.46,11.1407
162.59,11.1387
162.73,11.142
162.86,11.1479
163,11.1498
163.13,11.146
163.26,11.141
163.39,11.1389
163.53,11.1402
163.66,11.1415
163.8,11.1449
163.93,11.1456
164.07,11.1469
164.19,11.1456
164.33,11.1469
164.47,11.1477
164.6,11.1502
164.73,11.1519
164.86,11.152
165,11.1509
165.13,11.1486
165.26,11.1477
165.39,11.1475
165.53,11.1496
165.66,11.15
165.79,11.1539
165.93,11.1553
166.06,11.1542
166.19,11.1502
166.33,11.1481
166.46,11.1482
166.59,11.149
166.72,11.1475
166.86,11.1415
166.99,11.1388
167.13,11.1359
167.25,11.1368
167.4,11.1367
167.53,11.1378
167.66,11.1368
167.79,11.1376
167.93,11.1381
168.06,11.1399
168.19,11.1408
168.33,11.1417
168.46,11.1432
168.59,11.144
168.72,11.1455
168.85,11.1452
168.99,11.1448
169.12,11.1436
169.25,11.1452
169.39,11.1442
169.52,11.1466
169.65,11.1494
169.79,11.1507
169.92,11.151
170.06,11.1511
170.19,11.1505
170.32,11.1497
170.45,11.1497
170.59,11.1489
170.72,11.1517
170.85,11.1526
170.99,11.1555
171.12,11.1563
171.25,11.1578
171.38,11.1568
171.52,11.1575
171.65,11.155
171.78,11.1541
171.92,11.1537
172.05,11.1538
172.18,11.1533
172.32,11.1516
172.44,11.1512
172.58,11.1511
172.71,11.1538
172.85,11.1568
172.98,11.168
173.11,11.1779
173.25,11.1867
173.38,11.1926
173.51,11.1986
173.65,11.2017
173.78,11.2029
173.91,11.2027
174.05,11.2017
174.18,11.2023
174.31,11.2014
174.44,11.2021
174.58,11.2009
174.71,11.201
174.85,11.201
174.97,11.2031
175.11,11.204
175.25,11.2063
175.38,11.2053
175.51,11.2072
175.64,11.2093
175.78,11.211
175.9,11.2102
176.04,11.2097
176.18,11.2102
176.31,11.2107
176.44,11.2113
176.58,11.2101
176.7,11.2112
176.84,11.2117
176.97,11.2112
177.1,11.211
177.24,11.214
177.37,11.2139
177.5,11.2094
177.64,11.2018
177.77,11.2
177.9,11.2012
178.04,11.2027
178.17,11.2036
178.3,11.2058
178.43,11.209
178.57,11.2107
178.7,11.2116
178.84,11.2113
178.97,11.2142
179.1,11.2155
179.23,11.2165
179.37,11.2159
179.5,11.2182
179.63,11.2208
179.77,11.2213
179.9,11.2202
180.03,11.2195
180.17,11.2131
180.3,11.2086
180.43,11.2085
180.56,11.2105
180.7,11.2138
180.83,11.2165
180.97,11.2198
181.1,11.2214
181.23,11.2238
181.36,11.2217
181.5,11.2219
181.63,11.2209
181.76,11.2208
181.89,11.22
182.03,11.2216
182.16,11.222
182.29,11.2233
182.43,11.2241
182.56,11.2242
182.69,11.2242
182.83,11.2246
182.96,11.226
183.09,11.2264
183.22,11.226
183.36,11.225
183.49,11.2252
183.63,11.2233
183.76,11.2246
183.89,11.2243
184.03,11.2253
184.15,11.2244
184.29,11.2266
184.43,11.2259
184.56,11.2265
184.69,11.2246
184.82,11.2238
184.96,11.2252
185.09,11.227
185.22,11.2262
185.35,11.2259
185.49,11.2274
185.63,11.2273
185.75,11.2277
185.89,11.2285
186.03,11.2317
186.16,11.2306
186.29,11.228
186.43,11.2237
186.56,11.2239
186.69,11.2234
186.83,11.2236
186.95,11.2214
187.09,11.221
187.23,11.2216
187.36,11.221
187.49,11.2243
187.63,11.2266
187.76,11.2264
187.9,11.2175
188.02,11.2042
188.16,11.1947
188.29,11.1945
188.43,11.1965
188.55,11.202
188.69,11.2056
188.83,11.2085
188.96,11.2089
189.09,11.2123
189.22,11.2144
189.35,11.2179
189.49,11.2192
189.62,11.22
189.75,11.2204
189.89,11.2211
190.03,11.2219
190.15,11.2229
190.29,11.2242
190.42,11.2246
190.55,11.2282
190.69,11.2267
190.82,11.2217
190.95,11.2179
191.09,11.2161
191.22,11.2144
191.35,11.2194
191.49,11.2232
191.62,11.2272
191.75,11.2272
191.88,11.2136
192.02,11.1887
192.15,11.1736
192.29,11.1721
192.42,11.1822
192.55,11.194
192.68,11.2048
192.82,11.2132
192.95,11.2202
193.09,11.2265
193.22,11.2299
193.35,11.2331
193.48,11.2346
193.62,11.2365
193.75,11.2362
193.89,11.2356
194.02,11.235
194.15,11.2311
194.28,11.2202
194.42,11.2109
194.55,11.1947
194.69,11.1858
194.82,11.1843
194.95,11.1891
195.08,11.1947
195.22,11.1993
195.35,11.2027
195.48,11.2059
195.62,11.2092
195.75,11.2133
195.88,11.2162
196.02,11.2166
196.15,11.2136
196.28,11.2113
196.42,11.2116
196.55,11.2102
196.69,11.2125
196.82,11.2119
196.95,11.2097
197.08,11.2033
197.22,11.2013
197.35,11.1984
197.49,11.1998
197.62,11.2038
197.75,11.2108
197.88,11.214
198.02,11.2159
198.15,11.2182
198.29,11.2201
198.42,11.2195
198.55,11.2217
198.68,11.2262
198.82,11.2283
198.95,11.2292
199.08,11.23
199.22,11.2302
199.35,11.2284
199.48,11.2304
199.62,11.2314
199.75,11.2332
199.89,11.2312
200.02,11.2316
200.15,11.2327
200.28,11.2351
200.42,11.2351
200.55,11.236
200.68,11.2327
200.82,11.2312
200.94,11.2285
201.08,11.2291
201.22,11.2289
201.35,11.2287
201.48,11.2253
201.61,11.2169
201.75,11.2083
201.88,11.2008
202.01,11.198
202.14,11.2007
202.28,11.205
202.42,11.2108
202.55,11.2145
202.68,11.2194
202.81,11.2245
202.95,11.2248
203.08,11.2241
203.22,11.2186
203.35,11.2172
203.49,11.2159
203.62,11.2149
203.75,11.2154
203.88,11.2186
204.02,11.2166
204.15,11.2141
204.28,11.2119
204.42,11.2133
204.55,11.2162
204.68,11.2189
204.82,11.2195
204.94,11.2143
205.08,11.2089
205.22,11.1994
205.35,11.1957
205.48,11.1961
205.62,11.2004
205.75,11.2059
205.88,11.2105
206.01,11.2153
206.15,11.215
206.28,11.211
206.41,11.2067
206.54,11.2054
206.68,11.2086
206.81,11.2089
206.94,11.2082
207.08,11.2059
207.21,11.2059
207.35,11.2054
207.47,11.2059
207.6,11.2079
207.74,11.208
207.88,11.2093
208,11.2093
208.14,11.2095
208.28,11.2096
208.4,11.2088
208.54,11.2071
208.67,11.2058
208.8,11.2035
208.94,11.1959
209.07,11.1847
209.2,11.1792
209.34,11.1787
209.47,11.1785
209.6,11.1803
209.73,11.1848
209.86,11.1912
210,11.1937
210.13,11.1871
210.26,11.18
210.4,11.1772
210.53,11.1776
210.66,11.1789
210.8,11.1845
210.93,11.1895
211.06,11.1895
211.19,11.1797
211.33,11.1743
211.46,11.1742
211.6,11.1795
211.72,11.1867
211.86,11.1927
211.99,11.1953
212.13,11.1996
212.26,11.2
212.39,11.2001
212.53,11.2034
212.66,11.2036
212.79,11.2015
212.93,11.1989
213.06,11.1998
213.19,11.2015
213.33,11.1998
213.45,11.1976
213.59,11.1992
213.72,11.2041
213.85,11.2045
213.99,11.202
214.12,11.2018
214.25,11.2043
214.39,11.2086
214.52,11.2126
214.65,11.2123
214.79,11.2102
214.92,11.2104
215.05,11.2101
215.18,11.2099
215.32,11.2116
215.45,11.2129
215.59,11.2129
215.72,11.2149
215.85,11.2165
215.99,11.2175
216.12,11.2194
216.25,11.2195
216.38,11.2175
216.52,11.2138
216.65,11.2102
216.78,11.2092
216.92,11.2095
217.05,11.2085
217.18,11.2067
217.31,11.2106
217.44,11.2135
217.58,11.2147
217.72,11.2142
217.85,11.2124
217.98,11.214
218.11,11.2112
218.25,11.2067
218.38,11.2042
218.51,11.2012
218.65,11.2012
218.78,11.1987
218.92,11.1998
219.05,11.2043
219.18,11.2038
219.31,11.1954
219.44,11.1847
219.58,11.1827
219.71,11.1886
219.85,11.2013
219.86,11.2031