File: Raw_Data./Tensile Nozzle 0.4 mm/0 Degrees/LH0.1_0D_N0.4/Test 3.csv
Crosshead ,Crosshead ini,Load ,Load ,Time ,Strain 1 ,Strain 2 ,Strain 3 ,Strain 4 ,PoissonRatio ,0.001660156,0.0621877
0,0.001660156,0,0.0621877,0.213,-1.85E-05,-1.23E-05,-1.97E-05,9.90E-06,66.5749,0.001660156,0.0621877
0.00522461,0.006884766,0.008596714,0.0707844,0.413,-1.38E-06,-1.64E-05,-5.92E-06,-8.35E-06,1190.42,0.001660156,0.0621877
0.01171875,0.0133789,0.0116105,0.0737982,0.613,5.10E-05,4.14E-05,5.96E-05,-1.69E-05,81.1695,0.001660156,0.0621877
0.0190918,0.020752,0.0200269,0.0822146,0.813,0.000126326,8.74E-05,7.50E-05,-6.52E-05,69.2215,0.001660156,0.0621877
0.0268066,0.0284668,0.0275365,0.08972422,1.013,0.0001636,0.000109343,0.000169573,-0.000141417,66.8356,0.001660156,0.0621877
0.0340332,0.03569336,0.0372333,0.099421,1.213,0.00023846,0.000167513,0.000224534,-0.000161114,70.2478,0.001660156,0.0621877
0.040918,0.0425781,0.0441412,0.106329,1.413,0.000257162,0.000228626,0.000269442,-0.000190797,88.9035,0.001660156,0.0621877
0.0478027,0.0494629,0.0521815,0.114369,1.613,0.000343225,0.000256888,0.000316056,-0.000258551,74.8454,0.001660156,0.0621877
0.0552734,0.0569336,0.0573946,0.119582,1.813,0.000342087,0.000329076,0.000328057,-0.000182451,96.1966,0.001660156,0.0621877
0.0622559,0.063916,0.065155,0.127343,2.013,0.000395543,0.000387466,0.000364933,-0.000213103,97.958,0.001660156,0.0621877
0.0695312,0.0711914,0.074496,0.136684,2.213,0.000524963,0.000502914,0.000476139,-0.000239895,95.7999,0.001660156,0.0621877
0.0764648,0.078125,0.0772029,0.139391,2.413,0.000596608,0.000581941,0.000552834,-0.000314084,97.5416,0.001660156,0.0621877
0.0831543,0.0848145,0.0860114,0.148199,2.613,0.000646062,0.000648465,0.00062871,-0.000353247,100.372,0.001660156,0.0621877
0.09042969,0.0920898,0.0917228,0.15391,2.813,0.000732752,0.000737347,0.000745163,-0.000379626,100.627,0.001660156,0.0621877
0.0967285,0.0983887,0.10059,0.162777,3.013,0.000820522,0.000839866,0.000836242,-0.000439355,102.358,0.001660156,0.0621877
0.103906,0.105566,0.105874,0.168062,3.213,0.000850068,0.000876708,0.000883672,-0.000480109,103.134,0.001660156,0.0621877
0.111133,0.112793,0.111048,0.173236,3.413,0.000905714,0.000926363,0.000928727,-0.000488509,102.28,0.001660156,0.0621877
0.118213,0.119873,0.120213,0.182401,3.613,0.00093983,0.000937208,0.000946687,-0.000549051,99.721,0.001660156,0.0621877
0.125,0.12666,0.130212,0.1924,3.813,0.000928971,0.000964155,0.000965169,-0.000587025,103.787,0.001660156,0.0621877
0.131201,0.132861,0.135902,0.198089,4.013,0.00095493,0.000953522,0.000953425,-0.000574718,99.8526,0.001660156,0.0621877
0.137842,0.139502,0.139552,0.20174,4.213,0.00097148,0.000977739,0.000991446,-0.000662529,100.644,0.001660156,0.0621877
0.144873,0.146533,0.14802,0.210208,4.413,0.00103656,0.00103496,0.00103982,-0.000599856,99.8456,0.001660156,0.0621877
0.152246,0.153906,0.154102,0.216289,4.613,0.00111614,0.00112858,0.00115358,-0.000609177,101.115,0.001660156,0.0621877
0.15918,0.16084,0.161928,0.224115,4.813,0.00121006,0.00122514,0.00118102,-0.000645064,101.246,0.001660156,0.0621877
0.165039,0.166699,0.165223,0.22741,5.013,0.0013583,0.00138691,0.00133865,-0.000703933,102.106,0.001660156,0.0621877
0.171777,0.173437,0.173231,0.235419,5.213,0.00146164,0.00143098,0.00147011,-0.000732548,97.9024,0.001660156,0.0621877
0.178223,0.179883,0.178837,0.241025,5.413,0.00153538,0.00155516,0.00156188,-0.000801451,101.288,0.001660156,0.0621877
0.185547,0.187207,0.185294,0.247482,5.613,0.00158226,0.00159732,0.00163697,-0.000831783,100.952,0.001660156,0.0621877
0.192871,0.194531,0.191609,0.253796,5.813,0.0016007,0.00166577,0.00167931,-0.000870656,104.065,0.001660156,0.0621877
0.198877,0.200537,0.200735,0.262923,6.013,0.00164085,0.00171627,0.00170215,-0.000940438,104.596,0.001660156,0.0621877
0.205273,0.206934,0.20246,0.264648,6.213,0.00162644,0.00173514,0.00172906,-0.000910581,106.683,0.001660156,0.0621877
0.21167,0.21333,0.213813,0.276001,6.413,0.00165182,0.00173204,0.00175144,-0.000982628,104.856,0.001660156,0.0621877
0.218408,0.220068,0.218594,0.280781,6.613,0.00169046,0.00177554,0.00177111,-0.00097373,105.033,0.001660156,0.0621877
0.225732,0.227393,0.225355,0.287543,6.813,0.00173964,0.00178753,0.00177976,-0.000995522,102.753,0.001660156,0.0621877
0.232324,0.233984,0.228565,0.290752,7.013,0.00177881,0.00180356,0.00182185,-0.000922864,101.391,0.001660156,0.0621877
0.238867,0.240527,0.236488,0.298676,7.213,0.0018648,0.0018702,0.00187398,-0.00105602,100.29,0.001660156,0.0621877
0.244971,0.246631,0.241812,0.304,7.413,0.00192853,0.00194647,0.00195383,-0.00106214,100.93,0.001660156,0.0621877
0.251807,0.253467,0.249372,0.31156,7.613,0.00201717,0.00205493,0.00203646,-0.00104803,101.872,0.001660156,0.0621877
0.258643,0.260303,0.255592,0.31778,7.813,0.00214915,0.00216341,0.00218299,-0.00110483,100.664,0.001660156,0.0621877
0.265234,0.266895,0.259344,0.321532,8.013,0.0022417,0.00228292,0.00225312,-0.00115276,101.839,0.001660156,0.0621877
0.272266,0.273926,0.266665,0.3288526,8.213,0.002325,0.00238878,0.0023803,-0.00120895,102.743,0.001660156,0.0621877
0.278711,0.280371,0.274994,0.337182,8.413,0.00240294,0.00244105,0.00247339,-0.00121812,101.586,0.001660156,0.0621877
0.285352,0.287012,0.277797,0.339985,8.613,0.00243854,0.00252246,0.00255193,-0.00125495,103.441,0.001660156,0.0621877
0.292188,0.293848,0.283183,0.345371,8.813,0.00243854,0.00254796,0.00254898,-0.00132656,104.487,0.001660156,0.0621877
0.298291,0.299951,0.290887,0.353074,9.013,0.00249182,0.00260782,0.00258743,-0.00132997,104.655,0.001660156,0.0621877
0.305273,0.306934,0.299026,0.361214,9.213,0.00249963,0.00261132,0.00257915,-0.00138505,104.468,0.001660156,0.0621877
0.312207,0.313867,0.302662,0.36485,9.413,0.00250178,0.00261193,0.00260991,-0.00137985,104.403,0.001660156,0.0621877
0.318994,0.320654,0.308775,0.370963,9.613,0.00259258,0.00266338,0.00264982,-0.00141825,102.731,0.001660156,0.0621877
0.325537,0.327197,0.317716,0.379903,9.813,0.00264785,0.00271918,0.00270765,-0.00130427,102.694,0.001660156,0.0621877
0.331641,0.333301,0.319672,0.38186,10.013,0.00266995,0.00276957,0.00279351,-0.00148459,103.731,0.001660156,0.0621877
0.338184,0.339844,0.326438,0.388626,10.213,0.00277457,0.00286975,0.0028438,-0.00146528,103.43,0.001660156,0.0621877
0.345166,0.346826,0.333331,0.395518,10.413,0.00288619,0.00297771,0.00298356,-0.0015215,103.171,0.001660156,0.0621877
0.352393,0.354053,0.338695,0.400883,10.613,0.00297737,0.00305631,0.00307408,-0.00150586,102.651,0.001660156,0.0621877
0.35918,0.36084,0.345662,0.407849,10.813,0.0030762,0.00313942,0.00318325,-0.0015375,102.055,0.001660156,0.0621877
0.364941,0.366602,0.349548,0.411736,11.013,0.00314896,0.00321163,0.00325742,-0.00158788,101.99,0.001660156,0.0621877
0.371729,0.373389,0.353689,0.415877,11.213,0.00318416,0.00329806,0.00331518,-0.00160316,103.577,0.001660156,0.0621877
0.378174,0.379834,0.360214,0.422402,11.413,0.00322936,0.00332358,0.00334908,-0.00168803,102.918,0.001660156,0.0621877
0.3854,0.387061,0.365814,0.428001,11.613,0.00326269,0.00340761,0.00337357,-0.00171826,104.442,0.001660156,0.0621877
0.392725,0.394385,0.37211,0.434298,11.813,0.00329925,0.00345271,0.00339761,-0.00172316,104.651,0.001660156,0.0621877
0.398828,0.400488,0.378139,0.440326,12.013,0.0033373,0.00350177,0.0034677,-0.00173548,104.928,0.001660156,0.0621877
0.405273,0.406934,0.385964,0.448152,12.213,0.0034102,0.00354504,0.00352436,-0.00180568,103.954,0.001660156,0.0621877
0.41167,0.41333,0.388699,0.450887,12.413,0.00347249,0.00360091,0.00360664,-0.00174003,103.698,0.001660156,0.0621877
0.418555,0.420215,0.396928,0.459115,12.613,0.00353638,0.00365527,0.00368188,-0.0018263,103.362,0.001660156,0.0621877
0.42583,0.42749,0.400698,0.462885,12.813,0.00360266,0.00373425,0.00376424,-0.00182105,103.653,0.001660156,0.0621877
0.432422,0.434082,0.404005,0.466193,13.013,0.00368128,0.00382162,0.00382621,-0.00186181,103.812,0.001660156,0.0621877
0.439014,0.440674,0.409899,0.472086,13.213,0.00371259,0.00386975,0.00390112,-0.00188607,104.233,0.001660156,0.0621877
0.445117,0.446777,0.414231,0.476419,13.413,0.0038104,0.00396211,0.00398593,-0.00191169,103.981,0.001660156,0.0621877
0.4521,0.45376,0.421376,0.483564,13.613,0.00383007,0.00396366,0.0040397,-0.00198448,103.488,0.001660156,0.0621877
0.458887,0.460547,0.428196,0.490383,13.813,0.00395057,0.00403565,0.00406905,-0.00200906,102.154,0.001660156,0.0621877
0.465527,0.467187,0.432644,0.494831,14.013,0.00401627,0.0041436,0.00413421,-0.00206224,103.17,0.001660156,0.0621877
0.47251,0.47417,0.437854,0.500042,14.213,0.00405339,0.0042201,0.00421467,-0.00205923,104.113,0.001660156,0.0621877
0.478955,0.480615,0.44355,0.505738,14.413,0.00411975,0.00427922,0.00423812,-0.00211447,103.871,0.001660156,0.0621877
0.485547,0.487207,0.449275,0.511462,14.613,0.00417824,0.00436233,0.00434789,-0.00211742,104.406,0.001660156,0.0621877
0.492383,0.494043,0.455407,0.517595,14.813,0.0042685,0.00446568,0.00442663,-0.0021393,104.619,0.001660156,0.0621877
0.498486,0.500146,0.458854,0.521042,15.013,0.00430413,0.00451193,0.00453337,-0.00208946,104.828,0.001660156,0.0621877
0.50542,0.50708,0.46265,0.524838,15.213,0.00439407,0.00456965,0.00459878,-0.00211112,103.996,0.001660156,0.0621877
0.512402,0.514063,0.469657,0.531845,15.413,0.004427,0.00466398,0.00468958,-0.00216892,105.353,0.001660156,0.0621877
0.519141,0.520801,0.47152,0.533708,15.613,0.00448501,0.004715,0.00472656,-0.00219595,105.128,0.001660156,0.0621877
0.525684,0.527344,0.478918,0.541106,15.813,0.00450046,0.00471857,0.00474165,-0.00222724,104.846,0.001660156,0.0621877
0.531738,0.533398,0.483359,0.545547,16.013,0.0045247,0.0047645,0.00481216,-0.00226815,105.3,0.001660156,0.0621877
0.53833,0.53999,0.488546,0.550733,16.213,0.00462843,0.00484339,0.00481573,-0.002296,104.644,0.001660156,0.0621877
0.545215,0.546875,0.49387,0.5560578,16.413,0.00465772,0.00485462,0.00486395,-0.00234215,104.227,0.001660156,0.0621877
0.552441,0.554102,0.498434,0.560622,16.613,0.00477158,0.00488362,0.00493774,-0.00236794,102.348,0.001660156,0.0621877
0.559277,0.560938,0.504533,0.566721,16.813,0.00486858,0.0050103,0.00502064,-0.00238861,102.911,0.001660156,0.0621877
0.56499,0.56665,0.50847,0.570657,17.013,0.00493106,0.00512398,0.00513633,-0.00236197,103.912,0.001660156,0.0621877
0.571728,0.573389,0.512421,0.574609,17.213,0.00498397,0.00521871,0.00517267,-0.00242165,104.71,0.001660156,0.0621877
0.578125,0.579785,0.517304,0.579492,17.413,0.00510797,0.00534314,0.0053537,-0.00243682,104.604,0.001660156,0.0621877
0.585449,0.587109,0.524454,0.586642,17.613,0.00517292,0.00542674,0.00541293,-0.00243797,104.907,0.001660156,0.0621877
0.592773,0.594434,0.527763,0.589951,17.813,0.00521625,0.00549384,0.00550952,-0.00243572,105.322,0.001660156,0.0621877
0.598828,0.600488,0.532086,0.594273,18.013,0.00512565,0.00555014,0.00557851,-0.00249419,108.282,0.001660156,0.0621877
0.605225,0.606885,0.537325,0.599513,18.213,0.00518026,0.00559473,0.00559852,-0.00252787,108.001,0.001660156,0.0621877
0.611621,0.613281,0.542942,0.60513,18.413,0.00516265,0.00556761,0.00564962,-0.00254098,107.844,0.001660156,0.0621877
0.618555,0.620215,0.546241,0.608429,18.613,0.0053202,0.00565054,0.00562138,-0.00254605,106.209,0.001660156,0.0621877
0.625928,0.627588,0.548746,0.610934,18.813,0.0053629,0.00566511,0.00563545,-0.00262658,105.635,0.001660156,0.0621877
0.632568,0.634229,0.55243,0.614617,19.013,0.0054288,0.00573017,0.00569669,-0.00263156,105.551,0.001660156,0.0621877
0.639111,0.640771,0.560394,0.622582,19.213,0.00554164,0.00574584,0.00579628,-0.0026254,103.685,0.001660156,0.0621877
0.645264,0.646924,0.564192,0.626379,19.413,0.0054782,0.00583977,0.0058523,-0.00265249,106.6,0.001660156,0.0621877
0.652246,0.653906,0.569058,0.631246,19.613,0.00556081,0.00591515,0.00596017,-0.00266116,106.372,0.001660156,0.0621877
0.658984,0.660645,0.570729,0.632917,19.813,0.00561799,0.00602641,0.00608554,-0.00272869,107.27,0.001660156,0.0621877
0.665527,0.667188,0.579245,0.641433,20.013,0.00577431,0.00618548,0.0061891,-0.00274123,107.121,0.001660156,0.0621877
0.672461,0.674121,0.583341,0.645529,20.213,0.00581635,0.0062755,0.00628925,-0.00274873,107.894,0.001660156,0.0621877
0.678857,0.680518,0.587358,0.649546,20.413,0.00590581,0.00635566,0.00637352,-0.00276129,107.617,0.001660156,0.0621877
0.6854,0.687061,0.590576,0.652763,20.613,0.00592749,0.00638068,0.00639884,-0.00270071,107.646,0.001660156,0.0621877
0.692188,0.693848,0.594343,0.656531,20.813,0.00599068,0.00645387,0.00649107,-0.00280835,107.732,0.001660156,0.0621877
0.698291,0.699951,0.599098,0.661286,21.013,0.00599558,0.00647233,0.00649967,-0.0028118,107.952,0.001660156,0.0621877
0.705225,0.706885,0.60272,0.664907,21.213,0.00601237,0.00652132,0.00649746,-0.0028474,108.465,0.001660156,0.0621877
0.712109,0.71377,0.610239,0.672427,21.413,0.00614723,0.00652322,0.00649173,-0.00285398,106.116,0.001660156,0.0621877
0.718896,0.720557,0.611532,0.67372,21.613,0.00616277,0.00658036,0.00655628,-0.00286138,106.776,0.001660156,0.0621877
0.725439,0.7271,0.620544,0.682732,21.813,0.00622648,0.00665473,0.00665075,-0.00292118,106.878,0.001660156,0.0621877
0.731543,0.733203,0.625979,0.688167,22.013,0.00627525,0.00668215,0.00670958,-0.00295249,106.484,0.001660156,0.0621877
0.738135,0.739795,0.627222,0.689409,22.213,0.00635686,0.00679968,0.00679944,-0.00295272,106.966,0.001660156,0.0621877
0.745117,0.746777,0.634294,0.696482,22.413,0.0064013,0.00685735,0.0069197,-0.00296858,107.124,0.001660156,0.0621877
0.752393,0.754053,0.637896,0.700083,22.613,0.00653084,0.00697254,0.00705528,-0.00302377,106.763,0.001660156,0.0621877
0.75918,0.76084,0.641646,0.703834,22.813,0.00667835,0.00707914,0.00711496,-0.00303214,106.001,0.001660156,0.0621877
0.764941,0.766602,0.646482,0.70867,23.013,0.00677773,0.00716525,0.0072097,-0.00300781,105.718,0.001660156,0.0621877
0.77168,0.77334,0.648782,0.710969,23.213,0.00683757,0.00721302,0.00726875,-0.00301926,105.491,0.001660156,0.0621877
0.778125,0.779785,0.653857,0.716045,23.413,0.00689822,0.00727684,0.00732625,-0.00308767,105.489,0.001660156,0.0621877
0.785498,0.787158,0.656024,0.718211,23.613,0.00689187,0.00734448,0.00736872,-0.00308064,106.567,0.001660156,0.0621877
0.792822,0.794482,0.662872,0.725059,23.813,0.00697187,0.00739288,0.00739819,-0.00313523,106.039,0.001660156,0.0621877
0.7989258,0.800586,0.668915,0.731103,24.013,0.00697568,0.00745763,0.00744745,-0.00315628,106.909,0.001660156,0.0621877
0.805322,0.806982,0.672712,0.734899,24.213,0.00699398,0.00748095,0.00748974,-0.00315838,106.963,0.001660156,0.0621877
0.811768,0.813428,0.675468,0.737656,24.413,0.00706109,0.00755357,0.00753387,-0.00316516,106.975,0.001660156,0.0621877
0.818701,0.820361,0.680285,0.742473,24.613,0.00708824,0.00762372,0.00762136,-0.00318768,107.554,0.001660156,0.0621877
0.826074,0.827734,0.683781,0.745969,24.813,0.00715839,0.00767437,0.00769799,-0.00324269,107.208,0.001660156,0.0621877
0.832617,0.834277,0.688565,0.750753,25.013,0.00726204,0.00772673,0.00779573,-0.00326885,106.399,0.001660156,0.0621877
0.83916,0.84082,0.692909,0.755096,25.213,0.00734616,0.00777815,0.00786179,-0.00331875,105.88,0.001660156,0.0621877
0.845215,0.846875,0.694566,0.756754,25.413,0.00741961,0.00786704,0.00793674,-0.00333469,106.03,0.001660156,0.0621877
0.852051,0.853711,0.700604,0.762791,25.613,0.00748251,0.0078992,0.00798155,-0.00335821,105.569,0.001660156,0.0621877
0.858887,0.860547,0.7034948,0.765682,25.813,0.007585,0.00793328,0.00805576,-0.00336368,104.592,0.001660156,0.0621877
0.865381,0.867041,0.711077,0.773265,26.013,0.00764769,0.00804943,0.00808479,-0.00331412,105.253,0.001660156,0.0621877
0.872461,0.874121,0.713229,0.775417,26.213,0.00773564,0.00811667,0.00815073,-0.00340384,104.926,0.001660156,0.0621877
0.878857,0.880518,0.718025,0.780212,26.413,0.00775589,0.00820607,0.00820414,-0.0034195,105.804,0.001660156,0.0621877
0.885352,0.887012,0.719233,0.781421,26.613,0.00778878,0.00827422,0.00829173,-0.00345611,106.233,0.001660156,0.0621877
0.892236,0.893897,0.722232,0.784419,26.813,0.00781056,0.00830663,0.00833259,-0.00346915,106.351,0.001660156,0.0621877
0.898291,0.899951,0.730243,0.792431,27.013,0.00790111,0.00847989,0.00847403,-0.0034746,107.325,0.001660156,0.0621877
0.905371,0.907031,0.732762,0.794949,27.213,0.00796334,0.00852818,0.00854108,-0.003513,107.093,0.001660156,0.0621877
0.912305,0.913965,0.73637,0.798557,27.413,0.00805119,0.00849604,0.0086211,-0.00353007,105.525,0.001660156,0.0621877
0.919092,0.920752,0.7435,0.805688,27.613,0.0080583,0.00852738,0.00863999,-0.00363573,105.821,0.001660156,0.0621877
0.925537,0.927197,0.745715,0.807903,27.813,0.00818736,0.00860464,0.00874662,-0.0036409,105.097,0.001660156,0.0621877
0.931543,0.933203,0.747588,0.809776,28.013,0.00822464,0.00864883,0.00874041,-0.00365585,105.158,0.001660156,0.0621877
0.937988,0.939648,0.753629,0.815816,28.213,0.00824409,0.00862578,0.00875266,-0.00371369,104.63,0.001660156,0.0621877
0.944873,0.946533,0.75564,0.817827,28.413,0.00828939,0.00871221,0.00879679,-0.00374274,105.101,0.001660156,0.0621877
0.952148,0.953809,0.757993,0.820181,28.613,0.00836861,0.00881989,0.00884135,-0.00373832,105.393,0.001660156,0.0621877
0.959033,0.960693,0.7669818,0.829169,28.813,0.00846019,0.00887094,0.00895155,-0.00369775,104.855,0.001660156,0.0621877
0.964893,0.966553,0.769448,0.831636,29.013,0.0085275,0.00897132,0.00902173,-0.00374298,105.205,0.001660156,0.0621877
0.971631,0.973291,0.770265,0.832453,29.213,0.0086116,0.00900429,0.00915086,-0.00376251,104.56,0.001660156,0.0621877
0.978174,0.979834,0.775634,0.837821,29.413,0.00869486,0.00905969,0.00925891,-0.00373555,104.196,0.001660156,0.0621877
0.985449,0.987109,0.781039,0.843227,29.613,0.00875321,0.00920085,0.00936771,-0.00380292,105.114,0.001660156,0.0621877
0.992822,0.994482,0.789668,0.851855,29.813,0.00884539,0.00930741,0.00945769,-0.00386607,105.223,0.001660156,0.0621877
0.998926,1.00059,0.789053,0.851241,30.013,0.00889319,0.00938692,0.00951089,-0.00388376,105.552,0.001660156,0.0621877
1.00522,1.00688,0.793901,0.856089,30.213,0.00894845,0.00942021,0.0095625,-0.00394643,105.272,0.001660156,0.0621877
1.01172,1.01338,0.797153,0.859341,30.413,0.00900579,0.00944902,0.00960505,-0.0039583,104.922,0.001660156,0.0621877
1.01851,1.02017,0.802585,0.864773,30.613,0.00902702,0.00950147,0.00958269,-0.00400666,105.256,0.001660156,0.0621877
1.02583,1.02749,0.803174,0.865362,30.813,0.00903939,0.00951736,0.0096081,-0.00401777,105.288,0.001660156,0.0621877
1.03232,1.03398,0.811223,0.873411,31.013,0.0091066,0.0095681,0.00963578,-0.00410201,105.068,0.001660156,0.0621877
1.03887,1.04053,0.813154,0.875342,31.213,0.00912094,0.00961618,0.00968047,-0.00407305,105.43,0.001660156,0.0621877
1.04497,1.04663,0.816672,0.87886,31.413,0.00919263,0.00967042,0.00977763,-0.00401053,105.198,0.001660156,0.0621877
1.05186,1.05352,0.818993,0.88118,31.613,0.00926496,0.00967034,0.00982037,-0.0040879,104.375,0.001660156,0.0621877
1.05879,1.06045,0.82557,0.887758,31.813,0.00940999,0.00976921,0.00998489,-0.0041038,103.817,0.001660156,0.0621877
1.06538,1.06704,0.827712,0.889899,32.013,0.0095124,0.00987094,0.0101433,-0.00412214,103.769,0.001660156,0.0621877
1.07241,1.07407,0.833721,0.895909,32.213,0.00961069,0.0100153,0.0102483,-0.0041081,104.21,0.001660156,0.0621877
1.07886,1.08052,0.834005,0.896192,32.413,0.00968276,0.0101192,0.0102946,-0.00425251,104.507,0.001660156,0.0621877
1.0854,1.08706,0.841655,0.903843,32.613,0.00970549,0.0101823,0.0103274,-0.00423966,104.913,0.001660156,0.0621877
1.09224,1.0939,0.844079,0.906266,32.813,0.00975487,0.0102878,0.0104014,-0.00429229,105.463,0.001660156,0.0621877
1.09839,1.10005,0.845387,0.907575,33.013,0.00980164,0.0103439,0.010414,-0.00432362,105.532,0.001660156,0.0621877
1.10542,1.10708,0.849039,0.911227,33.213,0.00984455,0.0103683,0.0104398,-0.00438443,105.32,0.001660156,0.0621877
1.11235,1.11401,0.853846,0.916034,33.413,0.00989222,0.01043,0.0104571,-0.00440675,105.436,0.001660156,0.0621877
1.11919,1.12085,0.859534,0.921721,33.613,0.00986447,0.0104411,0.0104913,-0.00445051,105.846,0.001660156,0.0621877
1.12573,1.12739,0.860602,0.92279,33.813,0.0098811,0.0104957,0.0104882,-0.00447819,106.22,0.001660156,0.0621877
1.13188,1.13354,0.866757,0.928945,34.013,0.00997429,0.010517,0.0105702,-0.00448878,105.441,0.001660156,0.0621877
1.13857,1.14023,0.870811,0.932999,34.213,0.0100038,0.0105317,0.0106621,-0.00436058,105.277,0.001660156,0.0621877
1.14556,1.14722,0.874041,0.936229,34.413,0.0101581,0.0106207,0.0107844,-0.00441145,104.554,0.001660156,0.0621877
1.15293,1.15459,0.875905,0.938093,34.613,0.0102752,0.010666,0.010915,-0.00451093,103.803,0.001660156,0.0621877
1.15962,1.16128,0.879688,0.941876,34.813,0.0104098,0.0107912,0.0110343,-0.00451575,103.664,0.001660156,0.0621877
1.16553,1.16719,0.883593,0.945781,35.013,0.0104968,0.01091,0.0110884,-0.0045873,103.936,0.001660156,0.0621877
1.17217,1.17383,0.887694,0.949882,35.213,0.0105435,0.0109822,0.0111509,-0.00459981,104.161,0.001660156,0.0621877
1.17856,1.18022,0.893778,0.955966,35.413,0.01061,0.0111165,0.0112039,-0.00464613,104.774,0.001660156,0.0621877
1.18579,1.18745,0.893819,0.956007,35.613,0.010626,0.0111701,0.0112462,-0.00472543,105.12,0.001660156,0.0621877
1.19292,1.19458,0.899408,0.961595,35.813,0.0106709,0.011197,0.011288,-0.00476975,104.93,0.001660156,0.0621877
1.19893,1.20059,0.902179,0.964367,36.013,0.0106921,0.0112947,0.0113065,-0.00469418,105.636,0.001660156,0.0621877
1.20522,1.20688,0.906204,0.968392,36.213,0.0106956,0.0113178,0.0113569,-0.00480702,105.817,0.001660156,0.0621877
1.21162,1.21328,0.910097,0.972284,36.413,0.0107607,0.0113578,0.0114254,-0.00483351,105.549,0.001660156,0.0621877
1.21841,1.22007,0.910351,0.972538,36.613,0.010756,0.0113994,0.011456,-0.00485989,105.982,0.001660156,0.0621877
1.22573,1.22739,0.917067,0.979255,36.813,0.0108825,0.0114454,0.0115503,-0.00475951,105.173,0.001660156,0.0621877
1.23228,1.23394,0.921339,0.983526,37.013,0.0109167,0.0114884,0.0116197,-0.0048352,105.237,0.001660156,0.0621877
1.23887,1.24053,0.921591,0.983778,37.213,0.0110273,0.0115477,0.011742,-0.00486508,104.719,0.001660156,0.0621877
1.24502,1.24668,0.926138,0.988326,37.413,0.0111193,0.0116482,0.0118171,-0.00489855,104.757,0.001660156,0.0621877
1.2519,1.25356,0.928518,0.990706,37.613,0.0112339,0.0117122,0.011876,-0.00495064,104.258,0.001660156,0.0621877
1.25884,1.2605,0.928485,0.990673,37.813,0.0113042,0.0117833,0.0119334,-0.00492994,104.238,0.001660156,0.0621877
1.26538,1.26704,0.936894,0.999081,38.013,0.0113523,0.0118314,0.0119414,-0.00503555,104.22,0.001660156,0.0621877
1.27241,1.27407,0.942357,1.00454,38.213,0.0113835,0.0119142,0.012001,-0.00506133,104.662,0.001660156,0.0621877
1.27876,1.28042,0.943073,1.00526,38.413,0.0114632,0.0120334,0.0120658,-0.00511922,104.974,0.001660156,0.0621877
1.2853,1.28696,0.948047,1.01023,38.613,0.0114645,0.0120689,0.0121154,-0.00514548,105.272,0.001660156,0.0621877
1.29219,1.29385,0.951686,1.01387,38.813,0.0114809,0.0120932,0.0121972,-0.00520695,105.333,0.001660156,0.0621877
1.29829,1.29995,0.955053,1.01724,39.013,0.0115688,0.0122021,0.0123024,-0.00522216,105.474,0.001660156,0.0621877
1.30537,1.30703,0.959247,1.02143,39.213,0.0115846,0.0122546,0.0123543,-0.00526153,105.784,0.001660156,0.0621877
1.3123,1.31396,0.96051,1.0227,39.413,0.0116692,0.0123311,0.0124453,-0.00512366,105.672,0.001660156,0.0621877
1.31919,1.32085,0.964897,1.02708,39.613,0.0117587,0.0124205,0.0124877,-0.0051774,105.628,0.001660156,0.0621877
1.32573,1.32739,0.966794,1.02898,39.813,0.0118191,0.0124592,0.0125419,-0.00522348,105.416,0.001660156,0.0621877
1.33188,1.33354,0.971509,1.0337,40.013,0.0119007,0.0125109,0.0125952,-0.00529196,105.127,0.001660156,0.0621877
1.33853,1.34019,0.974291,1.03648,40.213,0.0119635,0.0125626,0.0126322,-0.0053271,105.008,0.001660156,0.0621877
1.34541,1.34707,0.977158,1.03935,40.413,0.0120031,0.0125737,0.0126815,-0.00534501,104.754,0.001660156,0.0621877
1.35269,1.35435,0.978381,1.04057,40.613,0.012042,0.012622,0.0127031,-0.00539434,104.816,0.001660156,0.0621877
1.35933,1.36099,0.986048,1.04824,40.813,0.0121378,0.0126876,0.0127874,-0.00547728,104.53,0.001660156,0.0621877
1.36514,1.3668,0.985815,1.048,41.013,0.0122118,0.0127648,0.0128686,-0.00544634,104.528,0.001660156,0.0621877
1.37173,1.37339,0.988955,1.05114,41.213,0.0122606,0.0128226,0.0129467,-0.00555909,104.584,0.001660156,0.0621877
1.37812,1.37979,0.995145,1.05733,41.413,0.0123494,0.0128888,0.0130785,-0.00553789,104.368,0.001660156,0.0621877
1.38555,1.38721,0.995625,1.05781,41.613,0.0124184,0.0129866,0.0131802,-0.00561828,104.575,0.001660156,0.0621877
1.39282,1.39448,1.00093,1.06312,41.813,0.0124679,0.0130866,0.0132611,-0.00561922,104.962,0.001660156,0.0621877
1.39893,1.40059,1.0039,1.06609,42.013,0.0125175,0.0132159,0.0132983,-0.0055295,105.579,0.001660156,0.0621877
1.40522,1.40688,1.00324,1.06543,42.213,0.0125426,0.0132582,0.0133149,-0.00557036,105.705,0.001660156,0.0621877
1.41172,1.41338,1.00821,1.0704,42.413,0.0125922,0.0133169,0.0133777,-0.00563329,105.755,0.001660156,0.0621877
1.41855,1.42021,1.01179,1.07397,42.613,0.0126321,0.0133635,0.013401,-0.00567402,105.79,0.001660156,0.0621877
1.42588,1.42754,1.01425,1.07644,42.813,0.0126588,0.0133559,0.013413,-0.00567451,105.507,0.001660156,0.0621877
1.43247,1.43413,1.0173,1.07949,43.013,0.0127296,0.0133861,0.0134231,-0.00570644,105.157,0.001660156,0.0621877
1.43901,1.44067,1.01965,1.08184,43.213,0.0127835,0.013426,0.0134595,-0.00575193,105.026,0.001660156,0.0621877
1.44512,1.44678,1.02519,1.08738,43.413,0.0128129,0.0134503,0.0135228,-0.00580784,104.975,0.001660156,0.0621877
1.452,1.45366,1.02504,1.08723,43.613,0.0128791,0.0135009,0.0136071,-0.00586399,104.828,0.001660156,0.0621877
1.45879,1.46045,1.03188,1.09407,43.813,0.013043,0.0136029,0.0137691,-0.00586481,104.293,0.001660156,0.0621877
1.46533,1.46699,1.03359,1.09578,44.013,0.0131036,0.0136814,0.0138744,-0.00591698,104.409,0.001660156,0.0621877
1.47236,1.47402,1.03658,1.09877,44.213,0.0132365,0.0138072,0.0140194,-0.0059851,104.312,0.001660156,0.0621877
1.47881,1.48047,1.03912,1.1013,44.413,0.0132608,0.0139065,0.0140846,-0.00597168,104.869,0.001660156,0.0621877
1.4854,1.48706,1.04388,1.10607,44.613,0.0132789,0.0140492,0.014127,-0.00600441,105.801,0.001660156,0.0621877
1.49229,1.49395,1.04512,1.10731,44.813,0.0133329,0.0141032,0.0141433,-0.00601558,105.777,0.001660156,0.0621877
1.49839,1.50005,1.0474,1.10958,45.013,0.0132498,0.0141473,0.0141499,-0.00601265,106.774,0.001660156,0.0621877
1.50542,1.50708,1.05327,1.11545,45.213,0.0132833,0.0141969,0.0141703,-0.00604168,106.878,0.001660156,0.0621877
1.5123,1.51396,1.05575,1.11793,45.413,0.0133174,0.0141844,0.0141809,-0.00607555,106.51,0.001660156,0.0621877
1.51909,1.52075,1.05731,1.11949,45.613,0.0133991,0.0142358,0.0142039,-0.00616009,106.244,0.001660156,0.0621877
1.52559,1.52725,1.06199,1.12418,45.813,0.0134341,0.0142302,0.0142543,-0.0061804,105.926,0.001660156,0.0621877
1.53169,1.53335,1.06614,1.12833,46.013,0.0134806,0.0142404,0.0143041,-0.00617567,105.636,0.001660156,0.0621877
1.53823,1.53989,1.06823,1.13042,46.213,0.0135315,0.0142682,0.0143795,-0.00618128,105.444,0.001660156,0.0621877
1.54512,1.54678,1.06904,1.13123,46.413,0.0135672,0.0143932,0.014559,-0.0062492,106.088,0.001660156,0.0621877
1.55234,1.554,1.07308,1.13527,46.613,0.013619,0.0144541,0.01461,-0.00623333,106.132,0.001660156,0.0621877
1.55913,1.56079,1.07439,1.13658,46.813,0.0137531,0.0145981,0.0147311,-0.00628177,106.144,0.001660156,0.0621877
1.56494,1.5666,1.07819,1.14038,47.013,0.0138481,0.014672,0.0148102,-0.00629542,105.95,0.001660156,0.0621877
1.57168,1.57334,1.07891,1.14109,47.213,0.0139125,0.0147546,0.0148843,-0.0063271,106.053,0.001660156,0.0621877
1.57817,1.57983,1.08132,1.14351,47.413,0.0139638,0.0148541,0.0149083,-0.0063065,106.376,0.001660156,0.0621877
1.58545,1.58711,1.08563,1.14782,47.613,0.0140247,0.0149256,0.0149048,-0.00639127,106.424,0.001660156,0.0621877
1.59272,1.59438,1.08881,1.151,47.813,0.0140071,0.0149503,0.0149165,-0.00639782,106.734,0.001660156,0.0621877
1.59878,1.60044,1.09286,1.15505,48.013,0.0140208,0.0150248,0.0149407,-0.00641234,107.161,0.001660156,0.0621877
1.60518,1.60684,1.09359,1.15577,48.213,0.0140873,0.0150406,0.0149645,-0.00642471,106.767,0.001660156,0.0621877
1.61162,1.61328,1.09968,1.16187,48.413,0.0140863,0.0150361,0.0150548,-0.00642023,106.743,0.001660156,0.0621877
1.61851,1.62017,1.10039,1.16258,48.613,0.0141323,0.0150732,0.0151311,-0.00644702,106.658,0.001660156,0.0621877
1.62583,1.62749,1.10341,1.1656,48.813,0.0141672,0.0151504,0.0152018,-0.00649281,106.94,0.001660156,0.0621877
1.63242,1.63408,1.10469,1.16688,49.013,0.0142697,0.0152562,0.0153163,-0.00652593,106.913,0.001660156,0.0621877
1.63901,1.64067,1.10791,1.1701,49.213,0.0143457,0.0153014,0.0153941,-0.00653052,106.662,0.001660156,0.0621877
1.64517,1.64683,1.1087,1.17089,49.413,0.014477,0.0153925,0.0155156,-0.00658633,106.324,0.001660156,0.0621877
1.65205,1.65371,1.11676,1.17895,49.613,0.0145725,0.0154338,0.0155504,-0.00659721,105.91,0.001660156,0.0621877
1.65898,1.66064,1.11659,1.17878,49.813,0.0146853,0.0155037,0.0156,-0.00661235,105.573,0.001660156,0.0621877
1.66548,1.66714,1.11871,1.1809,50.013,0.0147296,0.0155464,0.0156388,-0.00663306,105.545,0.001660156,0.0621877
1.67256,1.67422,1.12253,1.18472,50.213,0.0147611,0.0156035,0.0156699,-0.00667669,105.707,0.001660156,0.0621877
1.67896,1.68062,1.1217,1.18389,50.413,0.0147139,0.0156986,0.0157354,-0.00666412,106.692,0.001660156,0.0621877
1.68555,1.68721,1.12783,1.19002,50.613,0.0147866,0.0157704,0.0157872,-0.00663979,106.653,0.001660156,0.0621877
1.692334,1.69399,1.13004,1.19223,50.813,0.0147613,0.0158035,0.0158687,-0.00669551,107.06,0.001660156,0.0621877
1.69839,1.70005,1.13055,1.19274,51.013,0.0147994,0.0158668,0.0159503,-0.00673457,107.212,0.001660156,0.0621877
1.70537,1.70703,1.13457,1.19676,51.213,0.0148228,0.0158635,0.0160016,-0.00678367,107.021,0.001660156,0.0621877
1.7123,1.71396,1.13764,1.19983,51.413,0.0148911,0.015968,0.0160549,-0.00677567,107.232,0.001660156,0.0621877
1.71914,1.7208,1.13808,1.20027,51.613,0.0149558,0.0160373,0.0161265,-0.00685976,107.231,0.001660156,0.0621877
1.72573,1.72739,1.13884,1.20103,51.813,0.0150471,0.0160691,0.0161546,-0.00689712,106.792,0.001660156,0.0621877
1.73184,1.7335,1.13958,1.20177,52.013,0.0151467,0.0160821,0.0162224,-0.00690829,106.176,0.001660156,0.0621877
1.73838,1.74004,1.14388,1.20607,52.213,0.0152478,0.0161446,0.0162244,-0.00689934,105.882,0.001660156,0.0621877
1.74526,1.74692,1.1451,1.20729,52.413,0.0153218,0.0161814,0.016287,-0.00696397,105.61,0.001660156,0.0621877
1.75254,1.7542,1.14808,1.21027,52.613,0.0153566,0.0162097,0.0163149,-0.00691217,105.555,0.001660156,0.0621877
1.75933,1.76099,1.15255,1.21473,52.813,0.015414,0.016291,0.0163729,-0.00696745,105.69,0.001660156,0.0621877
1.76514,1.7668,1.1522,1.21439,53.013,0.0154404,0.0164232,0.0164475,-0.00696885,106.365,0.001660156,0.0621877
1.77183,1.77349,1.1555,1.21769,53.213,0.0154319,0.0164582,0.0165302,-0.00697772,106.651,0.001660156,0.0621877
1.77827,1.77993,1.15718,1.21937,53.413,0.0154646,0.0165344,0.0166325,-0.00704601,106.918,0.001660156,0.0621877
1.7856,1.78726,1.15666,1.21885,53.613,0.015477,0.0166044,0.0166872,-0.00708718,107.284,0.001660156,0.0621877
1.79282,1.79448,1.16156,1.22374,53.813,0.0155328,0.0166744,0.0167416,-0.00708431,107.35,0.001660156,0.0621877
1.79883,1.80049,1.16195,1.22413,54.013,0.0156026,0.016715,0.0167356,-0.00714367,107.13,0.001660156,0.0621877
1.80518,1.80684,1.16203,1.22421,54.213,0.0156607,0.016727,0.0168034,-0.00714399,106.809,0.001660156,0.0621877
1.81162,1.81328,1.16653,1.22872,54.413,0.0157002,0.0167551,0.0168059,-0.00720572,106.719,0.001660156,0.0621877
1.81851,1.82017,1.16832,1.23051,54.613,0.0157815,0.0167456,0.0167883,-0.00725828,106.109,0.001660156,0.0621877
1.82588,1.82754,1.1726,1.23479,54.813,0.0158422,0.0168094,0.0168605,-0.00728051,106.105,0.001660156,0.0621877
1.83242,1.83408,1.17049,1.23268,55.013,0.0158829,0.0168248,0.0169025,-0.00728442,105.93,0.001660156,0.0621877
1.83901,1.84067,1.17631,1.2385,55.213,0.0159601,0.0168448,0.0169502,-0.00723336,105.543,0.001660156,0.0621877
1.84512,1.84678,1.17378,1.23597,55.413,0.0160014,0.0169355,0.0170254,-0.00726158,105.838,0.001660156,0.0621877
1.85205,1.85371,1.17852,1.24071,55.613,0.0160346,0.0170319,0.0171265,-0.00729437,106.22,0.001660156,0.0621877
1.85889,1.86055,1.18247,1.24466,55.813,0.016052,0.0171201,0.0172379,-0.00730276,106.654,0.001660156,0.0621877
1.86543,1.86709,1.18177,1.24395,56.013,0.0161144,0.0172558,0.0173411,-0.00735798,107.083,0.001660156,0.0621877
1.87236,1.87402,1.1823,1.24449,56.213,0.0161768,0.0173037,0.0173678,-0.0074104,106.966,0.001660156,0.0621877
1.87881,1.88047,1.18551,1.24769,56.413,0.016197,0.0173527,0.0174169,-0.00738031,107.135,0.001660156,0.0621877
1.88525,1.88691,1.18745,1.24964,56.613,0.0162498,0.0173612,0.0173971,-0.00742771,106.839,0.001660156,0.0621877
1.89209,1.89375,1.18834,1.25052,56.813,0.016278,0.0173679,0.0173393,-0.00747339,106.696,0.001660156,0.0621877
1.89824,1.8999,1.18826,1.25045,57.013,0.0162971,0.0173175,0.0173459,-0.00751566,106.261,0.001660156,0.0621877
1.90527,1.90693,1.18955,1.25174,57.213,0.016334,0.0173146,0.0173525,-0.0075808,106.003,0.001660156,0.0621877
1.91221,1.91387,1.19355,1.25574,57.413,0.0164264,0.0173962,0.0173698,-0.00758256,105.904,0.001660156,0.0621877
1.91904,1.9207,1.19492,1.2571,57.613,0.0164667,0.0174203,0.0175063,-0.00748717,105.791,0.001660156,0.0621877
1.92559,1.92725,1.19595,1.25814,57.813,0.0165407,0.0174731,0.017619,-0.0075807,105.637,0.001660156,0.0621877
1.93164,1.9333,1.19648,1.25867,58.013,0.0166015,0.0175143,0.0177216,-0.0075854,105.498,0.001660156,0.0621877
1.93828,1.93994,1.19912,1.26131,58.213,0.0166383,0.017609,0.0177953,-0.00759103,105.834,0.001660156,0.0621877
1.94551,1.94717,0.482331,0.544518,58.413,0.0167005,0.0176036,0.0178424,-0.00718473,105.408,0.001660156,0.0621877
1.95288,1.95454,0.483538,0.545725,58.613,0.0162212,NaN,NaN,NaN,NaN,0.001660156,0.0621877
1.95952,1.96118,0.48637,0.548558,58.813,0.016187,NaN,NaN,NaN,NaN,0.001660156,0.0621877
1.96523,1.96689,0.483827,0.546014,59.013,0.0162038,NaN,NaN,NaN,NaN,0.001660156,0.0621877
1.97192,1.97358,0.481236,0.543424,59.213,0.016377,NaN,NaN,NaN,NaN,0.001660156,0.0621877
1.97822,1.97988,0.481238,0.543426,59.413,0.0163972,NaN,NaN,NaN,NaN,0.001660156,0.0621877
1.98545,1.98711,0.482141,0.544328,59.613,0.0163964,NaN,NaN,NaN,NaN,0.001660156,0.0621877
1.99277,1.99443,0.484023,0.546211,59.813,0.0163955,NaN,NaN,NaN,NaN,0.001660156,0.0621877
1.99888,2.00054,0.480293,0.542481,60.013,0.0164002,NaN,NaN,NaN,NaN,0.001660156,0.0621877
2.00532,2.00698,0.480288,0.542476,60.213,0.0163558,NaN,NaN,NaN,NaN,0.001660156,0.0621877
2.01177,2.01343,0.4763792,0.538567,60.413,0.0161591,NaN,NaN,NaN,NaN,0.001660156,0.0621877
2.0189,2.02056,0.106921,0.169108,60.613,0.0160287,NaN,NaN,NaN,NaN,0.001660156,0.0621877
2.02612,2.02778,0.10606,0.168248,60.813,NaN,NaN,NaN,NaN,NaN,0.001660156,0.0621877
2.03271,2.03437,0.107181,0.169369,61.013,NaN,NaN,NaN,NaN,NaN,0.001660156,0.0621877
2.03921,2.04087,0.104262,0.16645,61.213,NaN,NaN,NaN,NaN,NaN,0.001660156,0.0621877
2.04526,2.04692,0.107319,0.169507,61.413,NaN,NaN,NaN,NaN,NaN,0.001660156,0.0621877
2.0522,2.05386,0.105279,0.167467,61.613,NaN,NaN,NaN,NaN,NaN,0.001660156,0.0621877
2.05889,2.06055,0.105242,0.167429,61.813,NaN,NaN,NaN,NaN,NaN,0.001660156,0.0621877
2.06538,2.06704,0.104454,0.166642,62.013,NaN,NaN,NaN,NaN,NaN,0.001660156,0.0621877
2.07227,2.07393,0.103398,0.165585,62.213,NaN,NaN,NaN,NaN,NaN,0.001660156,0.0621877
2.07871,2.08037,0.104898,0.167086,62.413,NaN,NaN,NaN,NaN,NaN,0.001660156,0.0621877
2.08525,2.08691,0.105908,0.168095,62.613,NaN,NaN,NaN,NaN,NaN,0.001660156,0.0621877
2.09214,2.0938,0.105116,0.167304,62.813,NaN,NaN,NaN,NaN,NaN,0.001660156,0.0621877
2.09829,2.09995,0.106077,0.168265,63.013,NaN,NaN,NaN,NaN,NaN,0.001660156,0.0621877
2.10527,2.10693,0.103012,0.1652,63.213,NaN,NaN,NaN,NaN,NaN,0.001660156,0.0621877
2.11226,2.11392,0.103015,0.165203,63.413,NaN,NaN,NaN,NaN,NaN,0.001660156,0.0621877
2.11909,2.12075,0.106115,0.168303,63.613,NaN,NaN,NaN,NaN,NaN,0.001660156,0.0621877
2.12563,2.12729,0.105557,0.167745,63.813,NaN,NaN,NaN,NaN,NaN,0.001660156,0.0621877
2.13174,2.1334,0.107885,0.170073,64.013,NaN,NaN,NaN,NaN,NaN,0.001660156,0.0621877
2.13833,2.13999,0.106306,0.168493,64.213,NaN,NaN,NaN,NaN,NaN,0.001660156,0.0621877
2.14521,2.14688,0.103438,0.165626,64.413,NaN,NaN,NaN,NaN,NaN,0.001660156,0.0621877
2.15239,2.15405,0.10632,0.168507,64.613,NaN,NaN,NaN,NaN,NaN,0.001660156,0.0621877
2.15913,2.16079,0.10478,0.166968,64.813,NaN,NaN,NaN,NaN,NaN,0.001660156,0.0621877
2.16484,2.1665,0.108087,0.170275,65.013,NaN,NaN,NaN,NaN,NaN,0.001660156,0.0621877
2.17153,2.17319,0.103701,0.165889,65.213,NaN,NaN,NaN,NaN,NaN,0.001660156,0.0621877
2.17798,2.17964,0.102377,0.164565,65.413,NaN,NaN,NaN,NaN,NaN,0.001660156,0.0621877
2.18535,2.18701,0.104958,0.167145,65.613,NaN,NaN,NaN,NaN,NaN,0.001660156,0.0621877
2.19277,2.19443,0.107335,0.169522,65.813,NaN,NaN,NaN,NaN,NaN,0.001660156,0.0621877
2.19883,2.20049,0.104636,0.166823,66.013,NaN,NaN,NaN,NaN,NaN,0.001660156,0.0621877
2.20522,2.20688,0.105388,0.167576,66.213,NaN,NaN,NaN,NaN,NaN,0.001660156,0.0621877
2.21157,2.21323,0.107102,0.169289,66.413,NaN,NaN,NaN,NaN,NaN,0.001660156,0.0621877
2.21841,2.22007,0.104233,0.166421,66.613,NaN,NaN,NaN,NaN,NaN,0.001660156,0.0621877
2.22568,2.22734,0.106955,0.169143,66.813,NaN,NaN,NaN,NaN,NaN,0.001660156,0.0621877
2.23223,2.23389,0.102834,0.165022,67.013,NaN,NaN,NaN,NaN,NaN,0.001660156,0.0621877
2.23882,2.24048,0.104144,0.166331,67.213,NaN,NaN,NaN,NaN,NaN,0.001660156,0.0621877
2.24492,2.24658,0.104294,0.166482,67.413,NaN,NaN,NaN,NaN,NaN,0.001660156,0.0621877
2.25186,2.25352,0.103564,0.165751,67.613,NaN,NaN,NaN,NaN,NaN,0.001660156,0.0621877
2.25869,2.26035,0.105759,0.167946,67.813,NaN,NaN,NaN,NaN,NaN,0.001660156,0.0621877
2.26528,2.26694,0.103972,0.16616,68.013,NaN,NaN,NaN,NaN,NaN,0.001660156,0.0621877
2.27231,2.27397,0.104779,0.166967,68.213,NaN,NaN,NaN,NaN,NaN,0.001660156,0.0621877
2.27881,2.28047,0.104484,0.166672,68.413,NaN,NaN,NaN,NaN,NaN,0.001660156,0.0621877
2.28535,2.28701,0.10477,0.166957,68.613,NaN,NaN,NaN,NaN,NaN,0.001660156,0.0621877
2.29224,2.2939,0.106656,0.168844,68.813,NaN,NaN,NaN,NaN,NaN,0.001660156,0.0621877
2.29849,2.30015,0.105245,0.167432,69.013,NaN,NaN,NaN,NaN,NaN,0.001660156,0.0621877
2.30542,2.30708,0.103924,0.166112,69.213,NaN,NaN,NaN,NaN,NaN,0.001660156,0.0621877
2.31235,2.31401,0.102044,0.164232,69.413,NaN,NaN,NaN,NaN,NaN,0.001660156,0.0621877
2.31914,2.3208,0.10564,0.167827,69.613,NaN,NaN,NaN,NaN,NaN,0.001660156,0.0621877
2.32573,2.32739,0.10416,0.166348,69.813,NaN,NaN,NaN,NaN,NaN,0,0