File: DSC/Crystallisation Speed/Crystallisation time at Temperature T/crystal 80 deg.csv
Time,Unsubtracted Heat Flow,Baseline Heat Flow,Program Temperature,Sample Temperature,Approx. Gas Flow,Heat Flow Calibration,Uncorrected Heat Flow,
0.000000,9.261655,0.190191,30.02,30.058,0.000000,1.056615,9.261655,
0.015000,11.7017,2.822325,31.454,30.25,0.000000,1.056615,11.7017,
0.030000,10.8303,-0.110205,32.891,31.258,0.000000,1.056615,10.8303,
0.045000,3.414241,-7.775209,34.329,32.645,0.000000,1.056615,3.414241,
0.060000,-2.548239,-12.2712,35.766,34.104,0.000000,1.056615,-2.548239,
0.075000,-3.254058,-12.3432,37.204,35.554,0.000000,1.056615,-3.254058,
0.090000,-0.411235,-10.4841,38.641,36.995,0.000000,1.056615,-0.411235,
0.105000,3.558258,-8.592712,40.079,38.441,0.000000,1.056615,3.558258,
0.120000,7.372744,-7.270253,41.516,39.883,0.000000,1.056615,7.372744,
0.135000,10.6655,-6.465112,42.954,41.32,0.000000,1.056615,10.6655,
0.150000,13.4523,-5.985092,44.391,42.758,0.000000,1.056615,13.4523,
0.165000,15.826,-5.685752,45.829,44.195,0.000000,1.056615,15.826,
0.180000,17.8684,-5.482565,47.266,45.645,0.000000,1.056615,17.8684,
0.195000,19.6374,-5.330096,48.704,47.079,0.000000,1.056615,19.6374,
0.210000,21.1745,-5.204781,50.141,48.52,0.000000,1.056615,21.1745,
0.225000,22.5166,-5.099754,51.575,49.966,0.000000,1.056615,22.5166,
0.240000,23.6957,-5.008145,53.012,51.395,0.000000,1.056615,23.6957,
0.255000,24.7403,-4.924461,54.45,52.841,0.000000,1.056615,24.7403,
0.270000,25.6667,-4.845849,55.887,54.283,0.000000,1.056615,25.6667,
0.285000,26.497,-4.769984,57.325,55.725,0.000000,1.056615,26.497,
0.300000,27.2529,-4.694753,58.762,57.158,0.000000,1.056615,27.2529,
0.315000,27.943,-4.620896,60.2,58.6,0.000000,1.056615,27.943,
0.330000,28.5282,-4.544819,61.637,60.041,0.000000,1.056615,28.5282,
0.345000,29.0149,-4.468637,63.075,61.479,0.000000,1.056615,29.0149,
0.360000,29.4514,-4.394146,64.512,62.92,0.000000,1.056615,29.4514,
0.375000,29.8236,-4.319655,65.95,64.362,0.000000,1.056615,29.8236,
0.390000,30.1227,-4.244212,67.387,65.808,0.000000,1.056615,30.1227,
0.405000,30.3573,-4.170038,68.825,67.245,0.000000,1.056615,30.3573,
0.420000,30.5908,-4.092799,70.262,68.687,0.000000,1.056615,30.5908,
0.435000,30.8662,-4.014293,71.7,70.125,0.000000,1.056615,30.8662,
0.450000,31.2057,-3.931665,73.137,71.57,0.000000,1.056615,31.2057,
0.465000,31.5838,-3.843966,74.57,73.012,0.000000,1.056615,31.5838,
0.480000,32.0164,-3.755316,76.008,74.45,0.000000,1.056615,32.0164,
0.495000,32.5505,-3.663919,77.445,75.895,0.000000,1.056615,32.5505,
0.510000,33.0295,-3.570726,78.883,77.333,0.000000,1.056615,33.0295,
0.525000,33.5535,-3.475419,80.32,78.779,0.000000,1.056615,33.5535,
0.540000,34.4205,-3.369335,81.758,80.22,0.000000,1.056615,34.4205,
0.555000,35.4814,-3.255643,83.195,81.654,0.000000,1.056615,35.4814,
0.570000,36.4974,-3.142585,84.633,83.091,0.000000,1.056615,36.4974,
0.585000,37.4968,-3.036290,86.07,84.533,0.000000,1.056615,37.4968,
0.600000,38.7775,-2.937073,87.508,85.97,0.000000,1.056615,38.7775,
0.615000,39.7474,-2.843246,88.945,87.408,0.000000,1.056615,39.7474,
0.630000,40.3209,-2.748679,90.383,88.845,0.000000,1.056615,40.3209,
0.645000,40.6583,-2.657387,91.82,90.283,0.000000,1.056615,40.6583,
0.660000,40.8671,-2.564405,93.258,91.725,0.000000,1.056615,40.8671,
0.675000,41.0035,-2.471212,94.695,93.158,0.000000,1.056615,41.0035,
0.690000,41.1056,-2.369248,96.133,94.6,0.000000,1.056615,41.1056,
0.705000,41.1856,-2.265172,97.566,96.041,0.000000,1.056615,41.1856,
0.720000,41.2472,-2.164688,99.004,97.479,0.000000,1.056615,41.2472,
0.735000,41.2928,-2.061351,100.441,98.912,0.000000,1.056615,41.2928,
0.750000,41.3271,-1.962240,101.879,100.35,0.000000,1.056615,41.3271,
0.765000,41.3492,-1.859115,103.316,101.787,0.000000,1.056615,41.3492,
0.780000,41.3612,-1.755672,104.754,103.229,0.000000,1.056615,41.3612,
0.795000,41.3686,-1.649271,106.191,104.67,0.000000,1.056615,41.3686,
0.810000,41.3816,-1.537164,107.629,106.104,0.000000,1.056615,41.3816,
0.825000,41.3974,-1.420091,109.066,107.545,0.000000,1.056615,41.3974,
0.840000,41.4204,-1.307244,110.504,108.979,0.000000,1.056615,41.4204,
0.855000,41.4525,-1.201477,111.941,110.42,0.000000,1.056615,41.4525,
0.870000,41.4914,-1.097506,113.379,111.862,0.000000,1.056615,41.4914,
0.885000,41.5323,-0.989837,114.816,113.304,0.000000,1.056615,41.5323,
0.900000,41.5764,-0.887240,116.254,114.745,0.000000,1.056615,41.5764,
0.915000,41.6249,-0.779465,117.691,116.183,0.000000,1.056615,41.6249,
0.930000,41.6796,-0.663132,119.129,117.616,0.000000,1.056615,41.6796,
0.945000,41.7364,-0.539191,120.562,119.058,0.000000,1.056615,41.7364,
0.960000,41.7993,-0.409121,122,120.504,0.000000,1.056615,41.7993,
0.975000,41.8795,-0.270810,123.437,121.937,0.000000,1.056615,41.8795,
0.990000,41.9511,-0.159549,124.875,123.379,0.000000,1.056615,41.9511,
1.005000,41.9984,-0.065827,126.312,124.816,0.000000,1.056615,41.9984,
1.020000,42.0575,0.037721,127.75,126.254,0.000000,1.056615,42.0575,
1.035000,42.1348,0.154900,129.187,127.695,0.000000,1.056615,42.1348,
1.050000,42.2277,0.278524,130.625,129.137,0.000000,1.056615,42.2277,
1.065000,42.3297,0.400457,132.062,130.575,0.000000,1.056615,42.3297,
1.080000,42.4431,0.519749,133.5,132.02,0.000000,1.056615,42.4431,
1.095000,42.5719,0.639992,134.937,133.458,0.000000,1.056615,42.5719,
1.110000,42.7157,0.765201,136.375,134.9,0.000000,1.056615,42.7157,
1.125000,42.8672,0.884070,137.812,136.333,0.000000,1.056615,42.8672,
1.140000,43.0215,0.993852,139.25,137.779,0.000000,1.056615,43.0215,
1.155000,43.1895,1.110186,140.687,139.22,0.000000,1.056615,43.1895,
1.170000,43.37,1.231379,142.12,140.662,0.000000,1.056615,43.37,
1.185000,43.5603,1.352573,143.558,142.108,0.000000,1.056615,43.5603,
1.200000,43.7735,1.478839,144.995,143.541,0.000000,1.056615,43.7735,
1.215000,44.0093,1.610704,146.433,144.979,0.000000,1.056615,44.0093,
1.230000,44.2547,1.752079,147.87,146.42,0.000000,1.056615,44.2547,
1.245000,44.5056,1.889017,149.308,147.858,0.000000,1.056615,44.5056,
1.260000,44.7708,2.024052,150.745,149.295,0.000000,1.056615,44.7708,
1.275000,45.0577,2.157080,152.183,150.733,0.000000,1.056615,45.0577,
1.290000,45.3697,2.287361,153.62,152.175,0.000000,1.056615,45.3697,
1.305000,45.7133,2.414260,155.058,153.608,0.000000,1.056615,45.7133,
1.320000,46.0973,2.564722,156.495,155.041,0.000000,1.056615,46.0973,
1.335000,46.5231,2.709901,157.933,156.487,0.000000,1.056615,46.5231,
1.350000,46.9806,2.845254,159.37,157.925,0.000000,1.056615,46.9806,
1.365000,47.4397,2.977330,160.808,159.366,0.000000,1.056615,47.4397,
1.380000,47.8828,3.110781,162.245,160.804,0.000000,1.056615,47.8828,
1.395000,48.3071,3.255854,163.683,162.241,0.000000,1.056615,48.3071,
1.410000,48.68,3.408430,165.116,163.679,0.000000,1.056615,48.68,
1.425000,48.9689,3.567133,166.554,165.12,0.000000,1.056615,48.9689,
1.440000,49.1653,3.724886,167.991,166.562,0.000000,1.056615,49.1653,
1.455000,49.2782,3.876933,169.429,168,0.000000,1.056615,49.2782,
1.470000,49.3409,4.086460,170.866,169.437,0.000000,1.056615,49.3409,
1.485000,49.3791,4.309194,172.304,170.879,0.000000,1.056615,49.3791,
1.500000,49.4158,4.490509,173.741,172.316,0.000000,1.056615,49.4158,
1.515000,49.4602,4.630088,175.179,173.75,0.000000,1.056615,49.4602,
1.530000,49.5198,4.753712,176.616,175.195,0.000000,1.056615,49.5198,
1.545000,49.6006,4.880823,178.054,176.629,0.000000,1.056615,49.6006,
1.560000,49.7052,5.011843,179.491,178.066,0.000000,1.056615,49.7052,
1.575000,49.8251,5.149731,180.929,179.5,0.000000,1.056615,49.8251,
1.590000,49.9462,5.298186,182.366,180.941,0.000000,1.056615,49.9462,
1.605000,50.0585,5.448120,183.804,182.37,0.000000,1.056615,50.0585,
1.620000,50.1565,5.599216,185.241,183.808,0.000000,1.056615,50.1565,
1.635000,50.2309,5.758448,186.679,185.254,0.000000,1.056615,50.2309,
1.650000,50.2828,5.921800,188.112,186.691,0.000000,1.056615,50.2828,
1.665000,50.3175,6.079659,189.55,188.133,0.000000,1.056615,50.3175,
1.680000,50.3053,6.234030,190.987,189.575,0.000000,1.056615,50.3053,
1.695000,50.2535,6.390726,192.425,191.016,0.000000,1.056615,50.2535,
1.710000,50.1625,6.549747,193.862,192.445,0.000000,1.056615,50.1625,
1.725000,50.0374,6.714367,195.3,193.891,0.000000,1.056615,50.0374,
1.740000,49.9099,6.880784,196.737,195.337,0.000000,1.056615,49.9099,
1.755000,49.7861,7.047835,198.175,196.77,0.000000,1.056615,49.7861,
1.770000,49.6531,7.217105,199.612,198.216,0.000000,1.056615,49.6531,
1.785000,49.5264,7.387537,201.05,199.654,0.000000,1.056615,49.5264,
1.800000,49.3521,7.559554,202.487,201.095,0.000000,1.056615,49.3521,
1.815000,49.2081,7.733790,203.925,202.529,0.000000,1.056615,49.2081,
1.830000,49.8292,7.903799,205.362,203.975,0.000000,1.056615,49.8292,
1.845000,50.6922,8.077929,206.8,205.408,0.000000,1.056615,50.6922,
1.860000,51.3506,8.261569,208.237,206.854,0.000000,1.056615,51.3506,
1.875000,51.831,8.452182,209.675,208.291,0.000000,1.056615,51.831,
1.890000,52.1988,8.644064,211.108,209.725,0.000000,1.056615,52.1988,
1.905000,52.5135,8.831190,212.545,211.166,0.000000,1.056615,52.5135,
1.920000,52.8116,9.014407,213.983,212.6,0.000000,1.056615,52.8116,
1.935000,53.1004,9.198681,215.42,214.041,0.000000,1.056615,53.1004,
1.950000,53.3871,9.383589,216.858,215.479,0.000000,1.056615,53.3871,
1.965000,53.6703,9.565644,218.295,216.916,0.000000,1.056615,53.6703,
1.980000,53.9493,9.751185,219.733,218.35,0.000000,1.056615,53.9493,
1.995000,54.2304,9.937467,221.17,219.787,0.000000,1.056615,54.2304,
2.010000,54.5067,10.1264,222.608,221.225,0.000000,1.056615,54.5067,
2.025000,54.7793,10.3144,224.045,222.662,0.000000,1.056615,54.7793,
2.055000,50.6855,18.4896,225,225,0.000000,1.056615,50.6855,
2.115000,71.3026,36.8007,225,225.108,0.000000,1.056615,71.3026,
2.175000,56.9276,29.7333,225,225.07,0.000000,1.056615,56.9276,
2.235000,45.3043,27.7014,225,225.058,0.000000,1.056615,45.3043,
2.295000,38.5946,27.4291,225,225.058,0.000000,1.056615,38.5946,
2.355000,34.5557,27.3898,225,225.058,0.000000,1.056615,34.5557,
2.415000,32.1548,27.3873,225,225.058,0.000000,1.056615,32.1548,
2.475000,30.6976,27.3849,225,225.062,0.000000,1.056615,30.6976,
2.535000,29.8074,27.3832,225,225.062,0.000000,1.056615,29.8074,
2.595000,29.2661,27.3817,225,225.062,0.000000,1.056615,29.2661,
2.655000,28.9315,27.3798,225,225.066,0.000000,1.056615,28.9315,
2.715000,28.7229,27.3799,225,225.066,0.000000,1.056615,28.7229,
2.775000,28.5955,27.3761,225,225.062,0.000000,1.056615,28.5955,
2.835000,28.5114,27.3752,225,225.066,0.000000,1.056615,28.5114,
2.895000,28.4591,27.3734,225,225.066,0.000000,1.056615,28.4591,
2.955000,28.4225,27.3723,225,225.066,0.000000,1.056615,28.4225,
3.015000,28.3958,27.3697,225,225.066,0.000000,1.056615,28.3958,
3.075000,28.3777,27.3713,225,225.07,0.000000,1.056615,28.3777,
3.135000,28.3646,27.3708,225,225.066,0.000000,1.056615,28.3646,
3.195000,28.3519,27.3679,225,225.066,0.000000,1.056615,28.3519,
3.255000,28.3398,27.3671,225,225.066,0.000000,1.056615,28.3398,
3.315000,28.3336,27.3667,225,225.066,0.000000,1.056615,28.3336,
3.375000,28.326,27.364,225,225.07,0.000000,1.056615,28.326,
3.435000,28.3186,27.364,225,225.066,0.000000,1.056615,28.3186,
3.495000,28.3126,27.3619,225,225.066,0.000000,1.056615,28.3126,
3.555000,28.3074,27.3606,225,225.07,0.000000,1.056615,28.3074,
3.615000,28.3044,27.3626,225,225.075,0.000000,1.056615,28.3044,
3.675000,28.3006,27.3597,225,225.07,0.000000,1.056615,28.3006,
3.735000,28.2962,27.3589,225,225.07,0.000000,1.056615,28.2962,
3.795000,28.2937,27.3588,225,225.07,0.000000,1.056615,28.2937,
3.855000,28.2899,27.3572,225,225.062,0.000000,1.056615,28.2899,
3.915000,28.2871,27.3565,225,225.075,0.000000,1.056615,28.2871,
3.975000,28.2843,27.3571,225,225.066,0.000000,1.056615,28.2843,
4.035000,28.2788,27.3559,225,225.066,0.000000,1.056615,28.2788,
4.095000,28.2771,27.3548,225,225.066,0.000000,1.056615,28.2771,
4.155000,28.2737,27.3529,225,225.07,0.000000,1.056615,28.2737,
4.215000,28.2728,27.3513,225,225.07,0.000000,1.056615,28.2728,
4.275000,28.2701,27.3505,225,225.07,0.000000,1.056615,28.2701,
4.335000,28.2675,27.3503,225,225.07,0.000000,1.056615,28.2675,
4.395000,28.2673,27.3502,225,225.07,0.000000,1.056615,28.2673,
4.455000,28.2631,27.3472,225,225.07,0.000000,1.056615,28.2631,
4.515000,28.2621,27.3483,225,225.07,0.000000,1.056615,28.2621,
4.575000,28.2581,27.3483,225,225.075,0.000000,1.056615,28.2581,
4.635000,28.2565,27.3478,225,225.07,0.000000,1.056615,28.2565,
4.695000,28.2529,27.3454,225,225.07,0.000000,1.056615,28.2529,
4.755000,28.2517,27.3456,225,225.07,0.000000,1.056615,28.2517,
4.815000,28.2487,27.3446,225,225.075,0.000000,1.056615,28.2487,
4.875000,28.2467,27.3438,225,225.075,0.000000,1.056615,28.2467,
4.935000,28.2448,27.3433,225,225.075,0.000000,1.056615,28.2448,
4.995000,28.2402,27.3431,225,225.07,0.000000,1.056615,28.2402,
5.055000,28.2407,27.3435,225,225.075,0.000000,1.056615,28.2407,
5.115000,28.2337,27.342,225,225.066,0.000000,1.056615,28.2337,
5.175000,28.2328,27.3418,225,225.07,0.000000,1.056615,28.2328,
5.235000,28.2322,27.3429,225,225.075,0.000000,1.056615,28.2322,
5.295000,28.2286,27.3419,225,225.075,0.000000,1.056615,28.2286,
5.355000,28.2261,27.3404,225,225.075,0.000000,1.056615,28.2261,
5.415000,28.2242,27.3423,225,225.07,0.000000,1.056615,28.2242,
5.475000,28.2233,27.3417,225,225.075,0.000000,1.056615,28.2233,
5.535000,28.2194,27.3389,225,225.07,0.000000,1.056615,28.2194,
5.595000,28.2163,27.3412,225,225.07,0.000000,1.056615,28.2163,
5.655000,28.215,27.3381,225,225.075,0.000000,1.056615,28.215,
5.715000,28.2124,27.3398,225,225.075,0.000000,1.056615,28.2124,
5.775000,28.2112,27.3382,225,225.075,0.000000,1.056615,28.2112,
5.835000,28.2094,27.3373,225,225.07,0.000000,1.056615,28.2094,
5.895000,28.2082,27.3378,225,225.075,0.000000,1.056615,28.2082,
5.955000,28.2068,27.3389,225,225.075,0.000000,1.056615,28.2068,
6.015000,28.203,27.3369,225,225.075,0.000000,1.056615,28.203,
6.075000,28.2021,27.3359,225,225.075,0.000000,1.056615,28.2021,
6.135000,28.2003,27.3351,225,225.075,0.000000,1.056615,28.2003,
6.195000,28.197,27.3367,225,225.075,0.000000,1.056615,28.197,
6.255000,28.1978,27.3359,225,225.075,0.000000,1.056615,28.1978,
6.315000,28.1956,27.3326,225,225.075,0.000000,1.056615,28.1956,
6.375000,28.1936,27.3323,225,225.075,0.000000,1.056615,28.1936,
6.435000,28.1906,27.332,225,225.079,0.000000,1.056615,28.1906,
6.495000,28.1913,27.3325,225,225.075,0.000000,1.056615,28.1913,
6.555000,28.1865,27.3322,225,225.079,0.000000,1.056615,28.1865,
6.615000,28.1858,27.3323,225,225.079,0.000000,1.056615,28.1858,
6.675000,28.1832,27.3335,225,225.075,0.000000,1.056615,28.1832,
6.735000,28.1801,27.3297,225,225.075,0.000000,1.056615,28.1801,
6.795000,28.1818,27.3288,225,225.075,0.000000,1.056615,28.1818,
6.855000,28.179,27.3306,225,225.07,0.000000,1.056615,28.179,
6.915000,28.1768,27.3305,225,225.075,0.000000,1.056615,28.1768,
6.975000,28.1748,27.3287,225,225.07,0.000000,1.056615,28.1748,
7.035000,28.1746,27.3295,225,225.079,0.000000,1.056615,28.1746,
7.055000,23.7965,5.323122,222.645,224.862,0.000000,1.056615,23.7965,
7.070000,24.3965,8.786496,220.041,223.308,0.000000,1.056615,24.3965,
7.085000,33.3709,18.5009,217.437,220.929,0.000000,1.056615,33.3709,
7.100000,42.3249,26.2464,214.833,218.333,0.000000,1.056615,42.3249,
7.115000,45.7357,29.0717,212.229,215.695,0.000000,1.056615,45.7357,
7.130000,43.6185,28.3977,209.625,213.079,0.000000,1.056615,43.6185,
7.145000,38.2685,26.3296,207.02,210.475,0.000000,1.056615,38.2685,
7.160000,31.7087,24.1338,204.416,207.887,0.000000,1.056615,31.7087,
7.175000,25.0968,22.2728,201.812,205.295,0.000000,1.056615,25.0968,
7.190000,18.943,20.8148,199.204,202.704,0.000000,1.056615,18.943,
7.205000,13.4237,19.6991,196.6,200.12,0.000000,1.056615,13.4237,
7.220000,8.562070,18.8238,193.995,197.537,0.000000,1.056615,8.562070,
7.235000,4.317436,18.113,191.391,194.954,0.000000,1.056615,4.317436,
7.250000,0.626679,17.5099,188.787,192.366,0.000000,1.056615,0.626679,
7.265000,-2.575605,16.9792,186.183,189.783,0.000000,1.056615,-2.575605,
7.280000,-5.351545,16.4893,183.579,187.204,0.000000,1.056615,-5.351545,
7.295000,-7.755345,16.0282,180.975,184.62,0.000000,1.056615,-7.755345,
7.310000,-9.832967,15.5861,178.37,182.045,0.000000,1.056615,-9.832967,
7.325000,-11.6296,15.1538,175.766,179.47,0.000000,1.056615,-11.6296,
7.340000,-13.1821,14.73,173.162,176.891,0.000000,1.056615,-13.1821,
7.355000,-14.519,14.2974,170.558,174.316,0.000000,1.056615,-14.519,
7.370000,-15.6653,13.8666,167.95,171.737,0.000000,1.056615,-15.6653,
7.385000,-16.6496,13.4454,165.345,169.162,0.000000,1.056615,-16.6496,
7.400000,-17.4951,13.0303,162.741,166.587,0.000000,1.056615,-17.4951,
7.415000,-18.219,12.6104,160.137,164.012,0.000000,1.056615,-18.219,
7.430000,-18.8356,12.1843,157.533,161.437,0.000000,1.056615,-18.8356,
7.445000,-19.3597,11.7479,154.929,158.87,0.000000,1.056615,-19.3597,
7.460000,-19.7976,11.303,152.325,156.295,0.000000,1.056615,-19.7976,
7.475000,-20.1557,10.8482,149.72,153.733,0.000000,1.056615,-20.1557,
7.490000,-20.4341,10.3782,147.116,151.166,0.000000,1.056615,-20.4341,
7.505000,-20.6427,9.897632,144.512,148.604,0.000000,1.056615,-20.6427,
7.520000,-20.7863,9.400072,141.908,146.041,0.000000,1.056615,-20.7863,
7.535000,-20.8615,8.875251,139.3,143.491,0.000000,1.056615,-20.8615,
7.550000,-20.8584,8.307638,136.695,140.933,0.000000,1.056615,-20.8584,
7.565000,-20.7735,7.710967,134.091,138.379,0.000000,1.056615,-20.7735,
7.580000,-20.6032,7.081013,131.487,135.829,0.000000,1.056615,-20.6032,
7.595000,-20.3467,6.419360,128.883,133.283,0.000000,1.056615,-20.3467,
7.610000,-19.9995,5.712062,126.279,130.741,0.000000,1.056615,-19.9995,
7.625000,-19.5392,4.945065,123.675,128.195,0.000000,1.056615,-19.5392,
7.640000,-18.9455,4.104950,121.07,125.666,0.000000,1.056615,-18.9455,
7.655000,-18.1945,3.169106,118.466,123.141,0.000000,1.056615,-18.1945,
7.670000,-17.4275,2.108687,115.862,120.62,0.000000,1.056615,-17.4275,
7.685000,-18.3716,0.895270,113.258,118.116,0.000000,1.056615,-18.3716,
7.700000,-19.4528,1.143575,110.654,115.65,0.000000,1.056615,-19.4528,
7.715000,-20.5001,1.897153,108.045,113.225,0.000000,1.056615,-20.5001,
7.730000,-21.4839,2.523937,105.441,110.833,0.000000,1.056615,-21.4839,
7.745000,-22.3759,2.999308,102.837,108.475,0.000000,1.056615,-22.3759,
7.760000,-23.1751,3.326331,100.233,106.162,0.000000,1.056615,-23.1751,
7.775000,-23.8671,3.564492,97.629,103.879,0.000000,1.056615,-23.8671,
7.790000,-24.4271,3.723618,95.025,101.629,0.000000,1.056615,-24.4271,
7.805000,-24.8963,3.816706,92.42,99.42,0.000000,1.056615,-24.8963,
7.820000,-25.2828,3.851363,89.816,97.237,0.000000,1.056615,-25.2828,
7.835000,-25.5856,3.839846,87.212,95.091,0.000000,1.056615,-25.5856,
7.850000,-25.8133,3.786909,84.608,92.966,0.000000,1.056615,-25.8133,
7.865000,-25.9715,3.702063,82.004,90.879,0.000000,1.056615,-25.9715,
7.891250,-26.094,20.4755,80,87.425,0.000000,1.056615,-26.094,
7.951250,-74.2005,61.2798,80,81.25,0.000000,1.056615,-74.2005,
8.011250,-60.2606,14.3949,80,80.154,0.000000,1.056615,-60.2606,
8.071250,-32.6654,10.2626,80,80.133,0.000000,1.056615,-32.6654,
8.131250,-14.7507,11.7721,80,80.12,0.000000,1.056615,-14.7507,
8.191250,-4.208287,12.0763,80,80.116,0.000000,1.056615,-4.208287,
8.251250,2.199662,12.1362,80,80.108,0.000000,1.056615,2.199662,
8.311250,6.115795,12.1474,80,80.104,0.000000,1.056615,6.115795,
8.371250,8.518010,12.1502,80,80.1,0.000000,1.056615,8.518010,
8.431250,9.994418,12.1491,80,80.1,0.000000,1.056615,9.994418,
8.491250,10.9064,12.149,80,80.1,0.000000,1.056615,10.9064,
8.551250,11.4697,12.1486,80,80.1,0.000000,1.056615,11.4697,
8.611250,11.822,12.1485,80,80.095,0.000000,1.056615,11.822,
8.671250,12.0394,12.1491,80,80.091,0.000000,1.056615,12.0394,
8.731250,12.1763,12.1491,80,80.095,0.000000,1.056615,12.1763,
8.791250,12.2645,12.1483,80,80.095,0.000000,1.056615,12.2645,
8.851250,12.3177,12.1474,80,80.095,0.000000,1.056615,12.3177,
8.911250,12.353,12.1477,80,80.095,0.000000,1.056615,12.353,
8.971250,12.3751,12.147,80,80.095,0.000000,1.056615,12.3751,
9.031250,12.3904,12.1474,80,80.095,0.000000,1.056615,12.3904,
9.091250,12.3994,12.1466,80,80.095,0.000000,1.056615,12.3994,
9.151250,12.4062,12.147,80,80.095,0.000000,1.056615,12.4062,
9.211250,12.4115,12.1461,80,80.095,0.000000,1.056615,12.4115,
9.271250,12.4141,12.1463,80,80.095,0.000000,1.056615,12.4141,
9.331250,12.4164,12.1475,80,80.091,0.000000,1.056615,12.4164,
9.391250,12.4176,12.1453,80,80.091,0.000000,1.056615,12.4176,
9.451250,12.4193,12.1468,80,80.095,0.000000,1.056615,12.4193,
9.511250,12.4203,12.1456,80,80.095,0.000000,1.056615,12.4203,
9.571250,12.423,12.1467,80,80.091,0.000000,1.056615,12.423,
9.631250,12.4233,12.1452,80,80.095,0.000000,1.056615,12.4233,
9.691250,12.4232,12.1453,80,80.091,0.000000,1.056615,12.4232,
9.751250,12.4244,12.1457,80,80.091,0.000000,1.056615,12.4244,
9.811250,12.425,12.1455,80,80.091,0.000000,1.056615,12.425,
9.871250,12.4257,12.1449,80,80.091,0.000000,1.056615,12.4257,
9.931250,12.4263,12.1457,80,80.095,0.000000,1.056615,12.4263,
9.991250,12.4263,12.146,80,80.091,0.000000,1.056615,12.4263,
10.0512,12.428,12.1456,80,80.091,0.000000,1.056615,12.428,
10.1113,12.4275,12.1459,80,80.091,0.000000,1.056615,12.4275,
10.1713,12.4288,12.146,80,80.091,0.000000,1.056615,12.4288,
10.2312,12.4288,12.1464,80,80.087,0.000000,1.056615,12.4288,
10.2912,12.4278,12.1459,80,80.087,0.000000,1.056615,12.4278,
10.3513,12.4281,12.1458,80,80.095,0.000000,1.056615,12.4281,
10.4113,12.4289,12.1471,80,80.091,0.000000,1.056615,12.4289,
10.4712,12.4292,12.1459,80,80.091,0.000000,1.056615,12.4292,
10.5312,12.4294,12.1463,80,80.087,0.000000,1.056615,12.4294,
10.5913,12.4306,12.1451,80,80.091,0.000000,1.056615,12.4306,
10.6512,12.4299,12.146,80,80.091,0.000000,1.056615,12.4299,
10.7112,12.4298,12.1459,80,80.091,0.000000,1.056615,12.4298,
10.7713,12.4301,12.1458,80,80.091,0.000000,1.056615,12.4301,
10.8313,12.4307,12.1455,80,80.087,0.000000,1.056615,12.4307,
10.8912,12.4308,12.1449,80,80.095,0.000000,1.056615,12.4308,
10.9512,12.4297,12.1452,80,80.087,0.000000,1.056615,12.4297,
11.0113,12.4301,12.1463,80,80.091,0.000000,1.056615,12.4301,
11.0712,12.431,12.1457,80,80.091,0.000000,1.056615,12.431,
11.1312,12.4304,12.1459,80,80.091,0.000000,1.056615,12.4304,
11.1913,12.432,12.1456,80,80.091,0.000000,1.056615,12.432,
11.2513,12.4315,12.1455,80,80.087,0.000000,1.056615,12.4315,
11.3112,12.4319,12.1457,80,80.091,0.000000,1.056615,12.4319,
11.3712,12.4327,12.1446,80,80.095,0.000000,1.056615,12.4327,
11.4313,12.433,12.1463,80,80.091,0.000000,1.056615,12.433,
11.4913,12.4325,12.1457,80,80.091,0.000000,1.056615,12.4325,
11.5512,12.4336,12.1461,80,80.087,0.000000,1.056615,12.4336,
11.6113,12.4337,12.1455,80,80.087,0.000000,1.056615,12.4337,
11.6713,12.4323,12.1458,80,80.087,0.000000,1.056615,12.4323,
11.7312,12.433,12.1452,80,80.091,0.000000,1.056615,12.433,
11.7912,12.435,12.1448,80,80.087,0.000000,1.056615,12.435,
11.8513,12.4337,12.1459,80,80.087,0.000000,1.056615,12.4337,
11.9113,12.4342,12.1447,80,80.091,0.000000,1.056615,12.4342,
11.9712,12.4348,12.1449,80,80.091,0.000000,1.056615,12.4348,
12.0312,12.4334,12.1439,80,80.087,0.000000,1.056615,12.4334,
12.0913,12.4346,12.1466,80,80.091,0.000000,1.056615,12.4346,
12.1512,12.4349,12.1452,80,80.091,0.000000,1.056615,12.4349,
12.2112,12.4351,12.1449,80,80.087,0.000000,1.056615,12.4351,
12.2713,12.4351,12.1466,80,80.087,0.000000,1.056615,12.4351,
12.3313,12.4349,12.1453,80,80.087,0.000000,1.056615,12.4349,
12.3912,12.435,12.146,80,80.091,0.000000,1.056615,12.435,
12.4512,12.4349,12.1458,80,80.091,0.000000,1.056615,12.4349,
12.5113,12.4336,12.1448,80,80.087,0.000000,1.056615,12.4336,
12.5712,12.4342,12.1445,80,80.087,0.000000,1.056615,12.4342,
12.6312,12.4346,12.1449,80,80.087,0.000000,1.056615,12.4346,
12.6913,12.4341,12.1454,80,80.087,0.000000,1.056615,12.4341,
12.7513,12.435,12.1448,80,80.087,0.000000,1.056615,12.435,
12.8112,12.4357,12.1454,80,80.091,0.000000,1.056615,12.4357,
12.8712,12.4352,12.1453,80,80.091,0.000000,1.056615,12.4352,
12.9313,12.4351,12.1457,80,80.091,0.000000,1.056615,12.4351,
12.9913,12.4348,12.1453,80,80.091,0.000000,1.056615,12.4348,
13.0512,12.4356,12.1449,80,80.087,0.000000,1.056615,12.4356,
13.1113,12.4351,12.1445,80,80.087,0.000000,1.056615,12.4351,
13.1713,12.4352,12.1446,80,80.087,0.000000,1.056615,12.4352,
13.2312,12.4352,12.1442,80,80.087,0.000000,1.056615,12.4352,
13.2912,12.4355,12.1448,80,80.087,0.000000,1.056615,12.4355,
13.3513,12.4353,12.1454,80,80.087,0.000000,1.056615,12.4353,
13.4113,12.4348,12.1451,80,80.083,0.000000,1.056615,12.4348,
13.4712,12.4347,12.1453,80,80.091,0.000000,1.056615,12.4347,
13.5312,12.4342,12.1443,80,80.091,0.000000,1.056615,12.4342,
13.5913,12.4355,12.1448,80,80.087,0.000000,1.056615,12.4355,
13.6512,12.4352,12.1452,80,80.087,0.000000,1.056615,12.4352,
13.7112,12.4354,12.1449,80,80.091,0.000000,1.056615,12.4354,
13.7713,12.4345,12.1457,80,80.087,0.000000,1.056615,12.4345,
13.8313,12.4339,12.1444,80,80.087,0.000000,1.056615,12.4339,
13.8912,12.4361,12.1446,80,80.087,0.000000,1.056615,12.4361,
13.9512,12.4355,12.1443,80,80.087,0.000000,1.056615,12.4355,
14.0113,12.4349,12.1447,80,80.091,0.000000,1.056615,12.4349,
14.0712,12.4349,12.1428,80,80.087,0.000000,1.056615,12.4349,
14.1312,12.4346,12.1446,80,80.083,0.000000,1.056615,12.4346,
14.1913,12.4349,12.1436,80,80.083,0.000000,1.056615,12.4349,
14.2513,12.4357,12.1433,80,80.087,0.000000,1.056615,12.4357,
14.3112,12.4353,12.1435,80,80.087,0.000000,1.056615,12.4353,
14.3712,12.436,12.1444,80,80.087,0.000000,1.056615,12.436,
14.4313,12.4349,12.1437,80,80.091,0.000000,1.056615,12.4349,
14.4913,12.4354,12.1438,80,80.083,0.000000,1.056615,12.4354,
14.5512,12.4355,12.1439,80,80.087,0.000000,1.056615,12.4355,
14.6113,12.4353,12.1443,80,80.087,0.000000,1.056615,12.4353,
14.6713,12.4353,12.1435,80,80.087,0.000000,1.056615,12.4353,
14.7312,12.436,12.1439,80,80.087,0.000000,1.056615,12.436,
14.7912,12.4349,12.1438,80,80.087,0.000000,1.056615,12.4349,
14.8513,12.435,12.1433,80,80.087,0.000000,1.056615,12.435,
14.9113,12.4357,12.1436,80,80.087,0.000000,1.056615,12.4357,
14.9712,12.4351,12.143,80,80.087,0.000000,1.056615,12.4351,
15.0312,12.4361,12.1441,80,80.083,0.000000,1.056615,12.4361,
15.0913,12.436,12.1435,80,80.083,0.000000,1.056615,12.436,
15.1512,12.4352,12.144,80,80.087,0.000000,1.056615,12.4352,
15.2112,12.4365,12.1432,80,80.083,0.000000,1.056615,12.4365,
15.2713,12.436,12.1444,80,80.087,0.000000,1.056615,12.436,
15.3313,12.4356,12.1435,80,80.091,0.000000,1.056615,12.4356,
15.3912,12.4355,12.1432,80,80.087,0.000000,1.056615,12.4355,
15.4512,12.4348,12.1434,80,80.087,0.000000,1.056615,12.4348,
15.5113,12.4358,12.1426,80,80.087,0.000000,1.056615,12.4358,
15.5712,12.4356,12.143,80,80.083,0.000000,1.056615,12.4356,
15.6312,12.4352,12.1428,80,80.091,0.000000,1.056615,12.4352,
15.6913,12.4359,12.1428,80,80.083,0.000000,1.056615,12.4359,
15.7513,12.4356,12.143,80,80.087,0.000000,1.056615,12.4356,
15.8112,12.4349,12.1429,80,80.087,0.000000,1.056615,12.4349,
15.8712,12.4351,12.1438,80,80.083,0.000000,1.056615,12.4351,
15.9313,12.4348,12.1428,80,80.083,0.000000,1.056615,12.4348,
15.9913,12.4355,12.1438,80,80.083,0.000000,1.056615,12.4355,
16.0512,12.4354,12.1436,80,80.083,0.000000,1.056615,12.4354,
16.1112,12.4353,12.1432,80,80.087,0.000000,1.056615,12.4353,
16.1713,12.4358,12.1426,80,80.087,0.000000,1.056615,12.4358,
16.2312,12.4352,12.1429,80,80.083,0.000000,1.056615,12.4352,
16.2913,12.4358,12.1425,80,80.091,0.000000,1.056615,12.4358,
16.3513,12.4353,12.1435,80,80.083,0.000000,1.056615,12.4353,
16.4112,12.4363,12.1432,80,80.083,0.000000,1.056615,12.4363,
16.4713,12.4351,12.1435,80,80.083,0.000000,1.056615,12.4351,
16.5312,12.4358,12.1435,80,80.087,0.000000,1.056615,12.4358,
16.5912,12.4358,12.1427,80,80.087,0.000000,1.056615,12.4358,
16.6513,12.4363,12.143,80,80.087,0.000000,1.056615,12.4363,
16.7112,12.4353,12.1434,80,80.087,0.000000,1.056615,12.4353,
16.7712,12.4373,12.1429,80,80.083,0.000000,1.056615,12.4373,
16.8313,12.4363,12.143,80,80.083,0.000000,1.056615,12.4363,
16.8912,12.4352,12.1423,80,80.087,0.000000,1.056615,12.4352,
16.9513,12.4363,12.1438,80,80.087,0.000000,1.056615,12.4363,
17.0113,12.4361,12.1428,80,80.087,0.000000,1.056615,12.4361,
17.0712,12.4363,12.1429,80,80.087,0.000000,1.056615,12.4363,
17.1313,12.435,12.1432,80,80.087,0.000000,1.056615,12.435,
17.1913,12.4361,12.1418,80,80.083,0.000000,1.056615,12.4361,
17.2512,12.4366,12.1418,80,80.083,0.000000,1.056615,12.4366,
17.3113,12.4366,12.1422,80,80.083,0.000000,1.056615,12.4366,
17.3712,12.4371,12.1428,80,80.083,0.000000,1.056615,12.4371,
17.4312,12.4365,12.1425,80,80.087,0.000000,1.056615,12.4365,
17.4913,12.4352,12.1426,80,80.079,0.000000,1.056615,12.4352,
17.5512,12.4349,12.142,80,80.087,0.000000,1.056615,12.4349,
17.6112,12.4357,12.1434,80,80.083,0.000000,1.056615,12.4357,
17.6713,12.4364,12.143,80,80.083,0.000000,1.056615,12.4364,
17.7312,12.4352,12.1433,80,80.083,0.000000,1.056615,12.4352,
17.7913,12.4352,12.1426,80,80.083,0.000000,1.056615,12.4352,
17.8513,12.436,12.1433,80,80.087,0.000000,1.056615,12.436,
17.9112,12.4358,12.143,80,80.083,0.000000,1.056615,12.4358,
17.9713,12.4367,12.1429,80,80.087,0.000000,1.056615,12.4367,
18.0312,12.4354,12.1437,80,80.083,0.000000,1.056615,12.4354,
18.0912,12.4354,12.143,80,80.087,0.000000,1.056615,12.4354,
18.1513,12.4378,12.1434,80,80.083,0.000000,1.056615,12.4378,
18.2112,12.4365,12.1428,80,80.083,0.000000,1.056615,12.4365,
18.2712,12.437,12.143,80,80.087,0.000000,1.056615,12.437,
18.3313,12.4368,12.1434,80,80.087,0.000000,1.056615,12.4368,
18.3912,12.4379,12.1428,80,80.083,0.000000,1.056615,12.4379,
18.4513,12.4353,12.1435,80,80.087,0.000000,1.056615,12.4353,
18.5113,12.4359,12.1437,80,80.079,0.000000,1.056615,12.4359,
18.5712,12.4363,12.1427,80,80.083,0.000000,1.056615,12.4363,
18.6313,12.4357,12.1419,80,80.083,0.000000,1.056615,12.4357,
18.6913,12.4364,12.1433,80,80.079,0.000000,1.056615,12.4364,
18.7512,12.4358,12.1429,80,80.083,0.000000,1.056615,12.4358,
18.8113,12.4354,12.1426,80,80.079,0.000000,1.056615,12.4354,
18.8712,12.4357,12.1425,80,80.087,0.000000,1.056615,12.4357,
18.9312,12.436,12.1424,80,80.083,0.000000,1.056615,12.436,
18.9913,12.4353,12.144,80,80.083,0.000000,1.056615,12.4353,
19.0512,12.4371,12.1429,80,80.083,0.000000,1.056615,12.4371,
19.1112,12.4366,12.1427,80,80.083,0.000000,1.056615,12.4366,
19.1713,12.4375,12.1427,80,80.083,0.000000,1.056615,12.4375,
19.2312,12.4368,12.1427,80,80.087,0.000000,1.056615,12.4368,
19.2913,12.4368,12.1429,80,80.083,0.000000,1.056615,12.4368,
19.3513,12.4371,12.1436,80,80.079,0.000000,1.056615,12.4371,
19.4112,12.4366,12.1423,80,80.083,0.000000,1.056615,12.4366,
19.4713,12.4368,12.1428,80,80.083,0.000000,1.056615,12.4368,
19.5312,12.4371,12.1427,80,80.083,0.000000,1.056615,12.4371,
19.5912,12.4382,12.1433,80,80.083,0.000000,1.056615,12.4382,
19.6513,12.4375,12.1426,80,80.087,0.000000,1.056615,12.4375,
19.7112,12.4372,12.1428,80,80.083,0.000000,1.056615,12.4372,
19.7712,12.437,12.1435,80,80.083,0.000000,1.056615,12.437,
19.8313,12.4369,12.1425,80,80.079,0.000000,1.056615,12.4369,
19.8912,12.4366,12.1432,80,80.083,0.000000,1.056615,12.4366,
19.9513,12.4378,12.1425,80,80.087,0.000000,1.056615,12.4378,
20.0113,12.4364,12.1427,80,80.083,0.000000,1.056615,12.4364,
20.0712,12.4357,12.1429,80,80.083,0.000000,1.056615,12.4357,
20.1313,12.436,12.1423,80,80.087,0.000000,1.056615,12.436,
20.1913,12.4367,12.1422,80,80.083,0.000000,1.056615,12.4367,
20.2512,12.4381,12.1432,80,80.079,0.000000,1.056615,12.4381,
20.3113,12.4373,12.1416,80,80.083,0.000000,1.056615,12.4373,
20.3712,12.4374,12.1423,80,80.083,0.000000,1.056615,12.4374,
20.4312,12.4371,12.1425,80,80.087,0.000000,1.056615,12.4371,
20.4913,12.436,12.1417,80,80.083,0.000000,1.056615,12.436,
20.5512,12.4365,12.1434,80,80.083,0.000000,1.056615,12.4365,
20.6112,12.4368,12.1422,80,80.083,0.000000,1.056615,12.4368,
20.6713,12.4375,12.1432,80,80.083,0.000000,1.056615,12.4375,
20.7312,12.436,12.1421,80,80.083,0.000000,1.056615,12.436,
20.7913,12.4384,12.143,80,80.079,0.000000,1.056615,12.4384,
20.8513,12.4367,12.1429,80,80.087,0.000000,1.056615,12.4367,
20.9112,12.4371,12.1421,80,80.087,0.000000,1.056615,12.4371,
20.9713,12.4377,12.1433,80,80.079,0.000000,1.056615,12.4377,
21.0312,12.4374,12.1422,80,80.087,0.000000,1.056615,12.4374,
21.0912,12.4374,12.1424,80,80.083,0.000000,1.056615,12.4374,
21.1513,12.4386,12.1428,80,80.079,0.000000,1.056615,12.4386,
21.2112,12.4382,12.1424,80,80.083,0.000000,1.056615,12.4382,
21.2712,12.4374,12.1428,80,80.075,0.000000,1.056615,12.4374,
21.3313,12.4378,12.1426,80,80.091,0.000000,1.056615,12.4378,
21.3912,12.4383,12.142,80,80.083,0.000000,1.056615,12.4383,
21.4513,12.4368,12.1419,80,80.083,0.000000,1.056615,12.4368,
21.5113,12.4364,12.1425,80,80.083,0.000000,1.056615,12.4364,
21.5712,12.4377,12.1418,80,80.083,0.000000,1.056615,12.4377,
21.6313,12.4372,12.1423,80,80.083,0.000000,1.056615,12.4372,
21.6913,12.4372,12.1412,80,80.083,0.000000,1.056615,12.4372,
21.7512,12.4374,12.1415,80,80.083,0.000000,1.056615,12.4374,
21.8113,12.4376,12.1424,80,80.083,0.000000,1.056615,12.4376,
21.8712,12.437,12.1419,80,80.083,0.000000,1.056615,12.437,
21.9312,12.4382,12.1419,80,80.083,0.000000,1.056615,12.4382,
21.9913,12.4385,12.143,80,80.083,0.000000,1.056615,12.4385,
22.0512,12.4383,12.1411,80,80.079,0.000000,1.056615,12.4383,
22.1112,12.4389,12.1424,80,80.079,0.000000,1.056615,12.4389,
22.1713,12.4378,12.1425,80,80.083,0.000000,1.056615,12.4378,
22.2312,12.4382,12.142,80,80.083,0.000000,1.056615,12.4382,
22.2913,12.4378,12.1425,80,80.079,0.000000,1.056615,12.4378,
22.3513,12.4397,12.1432,80,80.087,0.000000,1.056615,12.4397,
22.4112,12.4384,12.1427,80,80.079,0.000000,1.056615,12.4384,
22.4713,12.4387,12.1417,80,80.083,0.000000,1.056615,12.4387,
22.5312,12.4382,12.1422,80,80.083,0.000000,1.056615,12.4382,
22.5912,12.4369,12.1422,80,80.083,0.000000,1.056615,12.4369,
22.6513,12.4378,12.1423,80,80.083,0.000000,1.056615,12.4378,
22.7112,12.4377,12.1428,80,80.083,0.000000,1.056615,12.4377,
22.7712,12.439,12.1422,80,80.079,0.000000,1.056615,12.439,
22.8313,12.4388,12.1428,80,80.083,0.000000,1.056615,12.4388,
22.8912,12.4382,12.1415,80,80.083,0.000000,1.056615,12.4382,
22.9513,12.4385,12.1421,80,80.079,0.000000,1.056615,12.4385,
23.0113,12.4386,12.1425,80,80.087,0.000000,1.056615,12.4386,
23.0712,12.4383,12.1415,80,80.083,0.000000,1.056615,12.4383,
23.1313,12.4382,12.1425,80,80.079,0.000000,1.056615,12.4382,
23.1913,12.4376,12.1419,80,80.083,0.000000,1.056615,12.4376,
23.2512,12.4385,12.1417,80,80.079,0.000000,1.056615,12.4385,
23.3113,12.4389,12.1422,80,80.083,0.000000,1.056615,12.4389,
23.3712,12.4374,12.1424,80,80.083,0.000000,1.056615,12.4374,
23.4312,12.4395,12.1415,80,80.087,0.000000,1.056615,12.4395,
23.4913,12.4378,12.1421,80,80.079,0.000000,1.056615,12.4378,
23.5512,12.4382,12.1417,80,80.083,0.000000,1.056615,12.4382,
23.6112,12.4388,12.1419,80,80.079,0.000000,1.056615,12.4388,
23.6713,12.4384,12.1418,80,80.083,0.000000,1.056615,12.4384,
23.7312,12.4383,12.1425,80,80.083,0.000000,1.056615,12.4383,
23.7913,12.4375,12.1425,80,80.079,0.000000,1.056615,12.4375,
23.8513,12.4389,12.142,80,80.075,0.000000,1.056615,12.4389,
23.9112,12.4383,12.1411,80,80.079,0.000000,1.056615,12.4383,
23.9713,12.4381,12.1419,80,80.083,0.000000,1.056615,12.4381,
24.0312,12.4382,12.1412,80,80.083,0.000000,1.056615,12.4382,
24.0912,12.4389,12.1416,80,80.079,0.000000,1.056615,12.4389,
24.1513,12.4383,12.1422,80,80.083,0.000000,1.056615,12.4383,
24.2112,12.4381,12.1421,80,80.079,0.000000,1.056615,12.4381,
24.2712,12.4377,12.1419,80,80.087,0.000000,1.056615,12.4377,
24.3313,12.4373,12.1415,80,80.083,0.000000,1.056615,12.4373,
24.3912,12.4387,12.142,80,80.079,0.000000,1.056615,12.4387,
24.4513,12.4374,12.1422,80,80.083,0.000000,1.056615,12.4374,
24.5113,12.4371,12.1418,80,80.083,0.000000,1.056615,12.4371,
24.5712,12.4372,12.142,80,80.083,0.000000,1.056615,12.4372,
24.6313,12.4378,12.1434,80,80.083,0.000000,1.056615,12.4378,
24.6913,12.4373,12.1418,80,80.083,0.000000,1.056615,12.4373,
24.7512,12.4374,12.141,80,80.079,0.000000,1.056615,12.4374,
24.8113,12.4373,12.1418,80,80.087,0.000000,1.056615,12.4373,
24.8712,12.4371,12.1421,80,80.083,0.000000,1.056615,12.4371,
24.9312,12.4384,12.1423,80,80.083,0.000000,1.056615,12.4384,
24.9913,12.4377,12.1419,80,80.083,0.000000,1.056615,12.4377,
25.0512,12.4368,12.1421,80,80.079,0.000000,1.056615,12.4368,
25.1112,12.4373,12.1412,80,80.079,0.000000,1.056615,12.4373,
25.1713,12.4388,12.1419,80,80.079,0.000000,1.056615,12.4388,
25.2312,12.4369,12.1415,80,80.079,0.000000,1.056615,12.4369,
25.2913,12.4377,12.1417,80,80.083,0.000000,1.056615,12.4377,
25.3513,12.4381,12.142,80,80.079,0.000000,1.056615,12.4381,
25.4112,12.4378,12.1414,80,80.083,0.000000,1.056615,12.4378,
25.4713,12.4381,12.1416,80,80.087,0.000000,1.056615,12.4381,
25.5312,12.437,12.1408,80,80.083,0.000000,1.056615,12.437,
25.5912,12.4375,12.1418,80,80.083,0.000000,1.056615,12.4375,
25.6513,12.4378,12.1415,80,80.079,0.000000,1.056615,12.4378,
25.7112,12.4386,12.1417,80,80.083,0.000000,1.056615,12.4386,
25.7712,12.4385,12.1419,80,80.083,0.000000,1.056615,12.4385,
25.8313,12.4384,12.1414,80,80.083,0.000000,1.056615,12.4384,
25.8912,12.4372,12.1416,80,80.083,0.000000,1.056615,12.4372,
25.9513,12.4363,12.1411,80,80.079,0.000000,1.056615,12.4363,
26.0113,12.4375,12.1417,80,80.083,0.000000,1.056615,12.4375,
26.0712,12.4367,12.1416,80,80.083,0.000000,1.056615,12.4367,
26.1313,12.4363,12.1418,80,80.079,0.000000,1.056615,12.4363,
26.1913,12.4373,12.142,80,80.083,0.000000,1.056615,12.4373,
26.2512,12.437,12.1415,80,80.079,0.000000,1.056615,12.437,
26.3113,12.4368,12.1415,80,80.079,0.000000,1.056615,12.4368,
26.3712,12.4364,12.1419,80,80.079,0.000000,1.056615,12.4364,
26.4312,12.4361,12.1417,80,80.083,0.000000,1.056615,12.4361,
26.4913,12.4364,12.1422,80,80.083,0.000000,1.056615,12.4364,
26.5512,12.437,12.1419,80,80.079,0.000000,1.056615,12.437,
26.6112,12.4371,12.1417,80,80.079,0.000000,1.056615,12.4371,
26.6713,12.4361,12.1421,80,80.083,0.000000,1.056615,12.4361,
26.7312,12.4358,12.1417,80,80.083,0.000000,1.056615,12.4358,
26.7913,12.436,12.143,80,80.079,0.000000,1.056615,12.436,
26.8513,12.4361,12.1418,80,80.083,0.000000,1.056615,12.4361,
26.9112,12.4376,12.1424,80,80.079,0.000000,1.056615,12.4376,
26.9713,12.4356,12.1423,80,80.079,0.000000,1.056615,12.4356,
27.0312,12.4371,12.1407,80,80.083,0.000000,1.056615,12.4371,
27.0912,12.4367,12.1418,80,80.083,0.000000,1.056615,12.4367,
27.1513,12.4367,12.1416,80,80.079,0.000000,1.056615,12.4367,
27.2112,12.4361,12.1418,80,80.075,0.000000,1.056615,12.4361,
27.2712,12.4369,12.1406,80,80.079,0.000000,1.056615,12.4369,
27.3313,12.4377,12.1425,80,80.083,0.000000,1.056615,12.4377,
27.3912,12.4366,12.1424,80,80.083,0.000000,1.056615,12.4366,
27.4513,12.4368,12.1419,80,80.079,0.000000,1.056615,12.4368,
27.5113,12.4361,12.1416,80,80.083,0.000000,1.056615,12.4361,
27.5712,12.4368,12.1422,80,80.079,0.000000,1.056615,12.4368,
27.6313,12.4364,12.1419,80,80.079,0.000000,1.056615,12.4364,
27.6913,12.4367,12.1417,80,80.083,0.000000,1.056615,12.4367,
27.7512,12.4361,12.142,80,80.079,0.000000,1.056615,12.4361,
27.8113,12.4366,12.1422,80,80.079,0.000000,1.056615,12.4366,
27.8712,12.4371,12.1416,80,80.079,0.000000,1.056615,12.4371,
27.9312,12.4367,12.1424,80,80.083,0.000000,1.056615,12.4367,
27.9913,12.4373,12.1417,80,80.083,0.000000,1.056615,12.4373,
28.0512,12.4366,12.1412,80,80.079,0.000000,1.056615,12.4366,
28.1112,12.4358,12.1422,80,80.075,0.000000,1.056615,12.4358,
28.1713,12.4369,12.1419,80,80.083,0.000000,1.056615,12.4369,
28.2312,12.4364,12.1418,80,80.079,0.000000,1.056615,12.4364,
28.2913,12.4354,12.1423,80,80.083,0.000000,1.056615,12.4354,
28.3513,12.437,12.141,80,80.083,0.000000,1.056615,12.437,
28.4112,12.4363,12.1414,80,80.083,0.000000,1.056615,12.4363,
28.4713,12.4369,12.1427,80,80.079,0.000000,1.056615,12.4369,
28.5312,12.4359,12.1423,80,80.083,0.000000,1.056615,12.4359,
28.5912,12.435,12.1418,80,80.079,0.000000,1.056615,12.435,
28.6513,12.4357,12.1424,80,80.079,0.000000,1.056615,12.4357,
28.7112,12.4368,12.1427,80,80.079,0.000000,1.056615,12.4368,
28.7712,12.4367,12.1418,80,80.079,0.000000,1.056615,12.4367,
28.8313,12.4375,12.1427,80,80.083,0.000000,1.056615,12.4375,
28.8912,12.4358,12.1422,80,80.083,0.000000,1.056615,12.4358,
28.9513,12.4364,12.1418,80,80.083,0.000000,1.056615,12.4364,
29.0113,12.4364,12.1419,80,80.075,0.000000,1.056615,12.4364,
29.0712,12.4363,12.1421,80,80.079,0.000000,1.056615,12.4363,
29.1313,12.4367,12.1421,80,80.079,0.000000,1.056615,12.4367,
29.1913,12.4372,12.1412,80,80.079,0.000000,1.056615,12.4372,
29.2512,12.437,12.1419,80,80.079,0.000000,1.056615,12.437,
29.3113,12.436,12.1417,80,80.079,0.000000,1.056615,12.436,
29.3712,12.4357,12.1415,80,80.079,0.000000,1.056615,12.4357,
29.4312,12.4357,12.142,80,80.083,0.000000,1.056615,12.4357,
29.4913,12.437,12.1426,80,80.079,0.000000,1.056615,12.437,
29.5512,12.4356,12.141,80,80.075,0.000000,1.056615,12.4356,
29.6112,12.4357,12.1415,80,80.079,0.000000,1.056615,12.4357,
29.6713,12.4352,12.1415,80,80.083,0.000000,1.056615,12.4352,
29.7312,12.436,12.1415,80,80.079,0.000000,1.056615,12.436,
29.7913,12.4355,12.1409,80,80.083,0.000000,1.056615,12.4355,
29.8513,12.4365,12.1423,80,80.083,0.000000,1.056615,12.4365,
29.9112,12.4371,12.1411,80,80.079,0.000000,1.056615,12.4371,
29.9713,12.4369,12.142,80,80.079,0.000000,1.056615,12.4369,
30.0312,12.437,12.1418,80,80.079,0.000000,1.056615,12.437,
30.0912,12.4376,12.1408,80,80.079,0.000000,1.056615,12.4376,
30.1513,12.4373,12.1414,80,80.083,0.000000,1.056615,12.4373,
30.2112,12.4369,12.1416,80,80.079,0.000000,1.056615,12.4369,
30.2712,12.4373,12.1408,80,80.079,0.000000,1.056615,12.4373,
30.3313,12.4365,12.1406,80,80.083,0.000000,1.056615,12.4365,
30.3912,12.4366,12.1414,80,80.079,0.000000,1.056615,12.4366,
30.4513,12.4354,12.1402,80,80.079,0.000000,1.056615,12.4354,
30.5113,12.436,12.1412,80,80.083,0.000000,1.056615,12.436,
30.5712,12.4363,12.1419,80,80.075,0.000000,1.056615,12.4363,
30.6313,12.4359,12.1409,80,80.079,0.000000,1.056615,12.4359,
30.6913,12.4364,12.1414,80,80.083,0.000000,1.056615,12.4364,
30.7512,12.4368,12.1406,80,80.079,0.000000,1.056615,12.4368,
30.8113,12.4374,12.141,80,80.079,0.000000,1.056615,12.4374,
30.8712,12.4358,12.1403,80,80.083,0.000000,1.056615,12.4358,
30.9312,12.4365,12.1401,80,80.079,0.000000,1.056615,12.4365,
30.9913,12.4365,12.1408,80,80.075,0.000000,1.056615,12.4365,
31.0512,12.4363,12.1405,80,80.079,0.000000,1.056615,12.4363,
31.1112,12.4359,12.1408,80,80.079,0.000000,1.056615,12.4359,
31.1713,12.4359,12.1408,80,80.079,0.000000,1.056615,12.4359,
31.2312,12.4367,12.1401,80,80.079,0.000000,1.056615,12.4367,
31.2913,12.4363,12.1408,80,80.075,0.000000,1.056615,12.4363,
31.3513,12.4364,12.1418,80,80.079,0.000000,1.056615,12.4364,
31.4112,12.4371,12.1402,80,80.079,0.000000,1.056615,12.4371,
31.4713,12.4364,12.1414,80,80.079,0.000000,1.056615,12.4364,
31.5312,12.4369,12.1407,80,80.079,0.000000,1.056615,12.4369,
31.5912,12.4364,12.1409,80,80.075,0.000000,1.056615,12.4364,
31.6513,12.4373,12.1415,80,80.079,0.000000,1.056615,12.4373,
31.7112,12.4368,12.141,80,80.079,0.000000,1.056615,12.4368,
31.7712,12.4352,12.141,80,80.079,0.000000,1.056615,12.4352,
31.8313,12.4361,12.1409,80,80.079,0.000000,1.056615,12.4361,
31.8912,12.4355,12.142,80,80.075,0.000000,1.056615,12.4355,
31.9513,12.4357,12.1409,80,80.079,0.000000,1.056615,12.4357,
32.0112,12.4378,12.1412,80,80.075,0.000000,1.056615,12.4378,
32.0712,12.4372,12.1408,80,80.075,0.000000,1.056615,12.4372,
32.1313,12.4359,12.1409,80,80.083,0.000000,1.056615,12.4359,
32.1912,12.4357,12.1404,80,80.079,0.000000,1.056615,12.4357,
32.2512,12.4361,12.1414,80,80.075,0.000000,1.056615,12.4361,
32.3113,12.4355,12.1414,80,80.079,0.000000,1.056615,12.4355,
32.3713,12.4359,12.1404,80,80.079,0.000000,1.056615,12.4359,
32.4312,12.4355,12.141,80,80.079,0.000000,1.056615,12.4355,
32.4913,12.4353,12.141,80,80.083,0.000000,1.056615,12.4353,
32.5513,12.4365,12.1408,80,80.079,0.000000,1.056615,12.4365,
32.6112,12.4355,12.1405,80,80.079,0.000000,1.056615,12.4355,
32.6713,12.4361,12.14,80,80.079,0.000000,1.056615,12.4361,
32.7313,12.4365,12.1407,80,80.079,0.000000,1.056615,12.4365,
32.7912,12.4372,12.1403,80,80.079,0.000000,1.056615,12.4372,
32.8513,12.4356,12.1397,80,80.079,0.000000,1.056615,12.4356,
32.9113,12.436,12.1416,80,80.083,0.000000,1.056615,12.436,
32.9712,12.436,12.141,80,80.075,0.000000,1.056615,12.436,
33.0312,12.4367,12.1406,80,80.079,0.000000,1.056615,12.4367,
33.0913,12.4356,12.1409,80,80.075,0.000000,1.056615,12.4356,
33.1512,12.4351,12.1408,80,80.075,0.000000,1.056615,12.4351,
33.2112,12.4365,12.1408,80,80.075,0.000000,1.056615,12.4365,
33.2713,12.4367,12.1407,80,80.075,0.000000,1.056615,12.4367,
33.3312,12.4365,12.1407,80,80.079,0.000000,1.056615,12.4365,
33.3912,12.4358,12.1411,80,80.079,0.000000,1.056615,12.4358,
33.4513,12.436,12.1407,80,80.079,0.000000,1.056615,12.436,
33.5112,12.4361,12.1411,80,80.079,0.000000,1.056615,12.4361,
33.5712,12.436,12.1399,80,80.079,0.000000,1.056615,12.436,
33.6313,12.4359,12.1414,80,80.079,0.000000,1.056615,12.4359,
33.6912,12.4366,12.1399,80,80.075,0.000000,1.056615,12.4366,
33.7512,12.4364,12.1408,80,80.079,0.000000,1.056615,12.4364,
33.8113,12.4356,12.1398,80,80.079,0.000000,1.056615,12.4356,
33.8713,12.4361,12.1395,80,80.075,0.000000,1.056615,12.4361,
33.9312,12.4353,12.1409,80,80.083,0.000000,1.056615,12.4353,
33.9913,12.436,12.1401,80,80.075,0.000000,1.056615,12.436,
34.0513,12.4353,12.1405,80,80.079,0.000000,1.056615,12.4353,
34.1112,12.4358,12.1408,80,80.079,0.000000,1.056615,12.4358,
34.1713,12.436,12.1402,80,80.079,0.000000,1.056615,12.436,
34.2313,12.4356,12.14,80,80.079,0.000000,1.056615,12.4356,
34.2912,12.436,12.1402,80,80.079,0.000000,1.056615,12.436,
34.3513,12.4358,12.1397,80,80.079,0.000000,1.056615,12.4358,
34.4113,12.4365,12.1401,80,80.083,0.000000,1.056615,12.4365,
34.4712,12.4354,12.1403,80,80.075,0.000000,1.056615,12.4354,
34.5312,12.436,12.1385,80,80.079,0.000000,1.056615,12.436,
34.5913,12.4366,12.1405,80,80.079,0.000000,1.056615,12.4366,
34.6512,12.4364,12.1401,80,80.075,0.000000,1.056615,12.4364,
34.7112,12.4359,12.1398,80,80.079,0.000000,1.056615,12.4359,
34.7713,12.436,12.1406,80,80.079,0.000000,1.056615,12.436,
34.8312,12.4352,12.141,80,80.079,0.000000,1.056615,12.4352,
34.8912,12.4363,12.1405,80,80.079,0.000000,1.056615,12.4363,
34.9513,12.4357,12.1406,80,80.079,0.000000,1.056615,12.4357,
35.0112,12.4358,12.1403,80,80.075,0.000000,1.056615,12.4358,
35.0712,12.436,12.1404,80,80.083,0.000000,1.056615,12.436,
35.1313,12.4351,12.1414,80,80.075,0.000000,1.056615,12.4351,
35.1912,12.4349,12.1405,80,80.079,0.000000,1.056615,12.4349,
35.2512,12.4361,12.1403,80,80.079,0.000000,1.056615,12.4361,
35.3113,12.4358,12.1409,80,80.079,0.000000,1.056615,12.4358,
35.3713,12.4359,12.141,80,80.079,0.000000,1.056615,12.4359,
35.4312,12.4359,12.1404,80,80.075,0.000000,1.056615,12.4359,
35.4913,12.4357,12.1406,80,80.079,0.000000,1.056615,12.4357,
35.5513,12.4356,12.1401,80,80.079,0.000000,1.056615,12.4356,
35.6112,12.4344,12.1403,80,80.079,0.000000,1.056615,12.4344,
35.6713,12.4359,12.1408,80,80.083,0.000000,1.056615,12.4359,
35.7313,12.4351,12.1405,80,80.075,0.000000,1.056615,12.4351,
35.7912,12.4351,12.1399,80,80.079,0.000000,1.056615,12.4351,
35.8513,12.4365,12.1403,80,80.079,0.000000,1.056615,12.4365,
35.9113,12.4369,12.1396,80,80.079,0.000000,1.056615,12.4369,
35.9712,12.4355,12.1402,80,80.075,0.000000,1.056615,12.4355,
36.0312,12.4349,12.1403,80,80.079,0.000000,1.056615,12.4349,
36.0913,12.4366,12.1403,80,80.075,0.000000,1.056615,12.4366,
36.1512,12.4371,12.1396,80,80.079,0.000000,1.056615,12.4371,
36.2112,12.4352,12.1401,80,80.083,0.000000,1.056615,12.4352,
36.2713,12.4361,12.1405,80,80.079,0.000000,1.056615,12.4361,
36.3312,12.435,12.1404,80,80.083,0.000000,1.056615,12.435,
36.3912,12.4356,12.1398,80,80.079,0.000000,1.056615,12.4356,
36.4513,12.435,12.1407,80,80.079,0.000000,1.056615,12.435,
36.5112,12.4342,12.1398,80,80.075,0.000000,1.056615,12.4342,
36.5712,12.4351,12.1406,80,80.079,0.000000,1.056615,12.4351,
36.6313,12.437,12.1407,80,80.079,0.000000,1.056615,12.437,
36.6912,12.4351,12.1411,80,80.079,0.000000,1.056615,12.4351,
36.7512,12.4349,12.1395,80,80.079,0.000000,1.056615,12.4349,
36.8113,12.4346,12.1407,80,80.083,0.000000,1.056615,12.4346,
36.8713,12.4334,12.1406,80,80.07,0.000000,1.056615,12.4334,
36.9312,12.4346,12.1399,80,80.079,0.000000,1.056615,12.4346,
36.9913,12.435,12.1408,80,80.079,0.000000,1.056615,12.435,
37.0513,12.4354,12.1416,80,80.075,0.000000,1.056615,12.4354,
37.1112,12.4336,12.1408,80,80.083,0.000000,1.056615,12.4336,
37.1713,12.4344,12.1398,80,80.079,0.000000,1.056615,12.4344,
37.2313,12.4344,12.1397,80,80.079,0.000000,1.056615,12.4344,
37.2912,12.4351,12.1408,80,80.079,0.000000,1.056615,12.4351,
37.3513,12.4364,12.141,80,80.079,0.000000,1.056615,12.4364,
37.4113,12.4339,12.1399,80,80.079,0.000000,1.056615,12.4339,
37.4712,12.4342,12.1406,80,80.075,0.000000,1.056615,12.4342,
37.5312,12.4341,12.14,80,80.079,0.000000,1.056615,12.4341,
37.5913,12.4349,12.1398,80,80.079,0.000000,1.056615,12.4349,
37.6512,12.4338,12.1414,80,80.075,0.000000,1.056615,12.4338,
37.7112,12.4347,12.1402,80,80.075,0.000000,1.056615,12.4347,
37.7713,12.4348,12.1406,80,80.079,0.000000,1.056615,12.4348,
37.8312,12.4345,12.1393,80,80.079,0.000000,1.056615,12.4345,
37.8912,12.4339,12.1414,80,80.079,0.000000,1.056615,12.4339,
37.9312,12.4346,12.141,80,80.079,0.000000,1.056615,12.4346,