File: Raw_Data./Tensile Nozzle 0.4 mm/45 Degrees/LH0.2_45D_N0.4/Test Run 1 02-21-20 12 54 37 PM/DAQ- Crosshead, … - (Timed).txt
File Path: C:\Users\MTS 300\Desktop\robin\eprouvette 45 lh02\Test Run 1 02-21-20 12 54 37 PM\DAQ- Crosshead, … - (Timed).txt
Test: Tensile test LEI 20
Test Run: Test Run 1
Date: 21/02/2020 12:53:26

Crosshead 	Load 	Time 	Strain 1 	Strain 2
mm	kN	sec	mm/mm	mm/mm
0.00424805	-0.00670424	0.116	-5.2535e-05	1.82289e-05
0.0102051	-0.00225704	0.216	-5.18571e-06	1.86406e-05
0.0172852	0.00331959	0.316	1.24507e-05	1.77275e-05
0.0251953	0.0124229	0.416	0.000124135	-5.36559e-05
0.0339355	0.0181989	0.516	0.000162021	-5.36559e-05
0.0430176	0.0216955	0.616	0.000304719	-0.000111547
0.051416	0.0318303	0.716	0.00038675	-0.000139609
0.0599609	0.0368852	0.816	0.000475719	-0.000154753
0.0688477	0.0444873	0.916	0.00054173	-0.000172775
0.0778809	0.0508133	1.016	0.00059601	-0.000214604
0.0868652	0.0614979	1.116	0.000807501	-0.000272285
0.0953613	0.0639647	1.216	0.000866652	-0.000272285
0.104199	0.0721772	1.316	0.00101496	-0.00040331
0.112939	0.0791528	1.416	0.00108702	-0.000410584
0.121875	0.0845522	1.516	0.001094	-0.000428752
0.130322	0.0941095	1.616	0.001167	-0.000464766
0.139111	0.0995451	1.716	0.00133687	-0.000472427
0.147559	0.112825	1.816	0.00146219	-0.000498577
0.156396	0.113142	1.916	0.00155953	-0.000599017
0.165381	0.123309	2.016	0.00168698	-0.000584329
0.174268	0.12848	2.116	0.00168698	-0.000599335
0.18252	0.133155	2.216	0.0019033	-0.000724788
0.190918	0.138666	2.316	0.00195093	-0.000724788
0.199756	0.148341	2.416	0.00202896	-0.000723323
0.208594	0.154194	2.516	0.00226924	-0.000814435
0.216553	0.157922	2.616	0.00229072	-0.000814435
0.224707	0.166925	2.716	0.00239206	-0.000835132
0.233203	0.170266	2.816	0.00243989	-0.000872575
0.242187	0.180819	2.916	0.0024794	-0.000906776
0.250293	0.183603	3.016	0.00257648	-0.000906776
0.25835	0.189371	3.116	0.00263897	-0.000889312
0.266602	0.196077	3.216	0.00279298	-0.000981735
0.275342	0.202362	3.316	0.00284881	-0.00100438
0.283691	0.206195	3.416	0.00299719	-0.00104318
0.291748	0.211638	3.516	0.0030937	-0.00115123
0.3	0.214825	3.616	0.0031545	-0.00115099
0.308496	0.220616	3.716	0.00325323	-0.00115867
0.316895	0.225913	3.816	0.00331844	-0.00115659
0.325488	0.231467	3.916	0.00349203	-0.00124128
0.333838	0.239205	4.016	0.0035259	-0.00127881
0.342383	0.242646	4.116	0.00363204	-0.00135425
0.350537	0.248966	4.216	0.0037423	-0.00135829
0.359082	0.254451	4.316	0.0037944	-0.00136971
0.367773	0.260184	4.416	0.00391463	-0.00144974
0.376025	0.266351	4.516	0.00395817	-0.00148406
0.384033	0.273375	4.616	0.00414415	-0.00149453
0.392334	0.278479	4.716	0.00420094	-0.00149608
0.401074	0.284711	4.816	0.00431693	-0.00159987
0.40957	0.287026	4.916	0.00437968	-0.00161496
0.41748	0.289061	5.016	0.00451392	-0.00166547
0.425586	0.295938	5.116	0.00463265	-0.00120051
0.43418	0.305689	5.216	0.00467799	-0.00129621
0.44292	0.305855	5.316	0.00480429	-0.00164522
0.450928	0.310185	5.416	0.00486726	-0.00174672
0.458984	0.317831	5.516	0.00493759	-0.00176952
0.467334	0.321049	5.616	0.00496552	-0.00181912
0.476074	0.324195	5.716	0.00518043	-0.00191297
0.484521	0.330177	5.816	0.00524321	-0.00190138
0.492627	0.335347	5.916	0.00528832	-0.00190962
0.501074	0.34022	6.016	0.00535675	-0.001916
0.509521	0.339985	6.116	0.00547037	-0.00196659
0.517969	0.350992	6.216	0.0056062	-0.00203522
0.526416	0.351241	6.316	0.00565788	-0.00211172
0.534668	0.358157	6.416	0.00572462	-0.00214547
0.542969	0.361739	6.516	0.00594978	-0.00214547
0.551074	0.362972	6.616	0.00600757	-0.00214067
0.559619	0.36865	6.716	0.00614992	-0.00223523
0.568213	0.375832	6.816	0.00618434	-0.00222333
0.576416	0.379762	6.916	0.00625835	-0.0023061
0.584277	0.383067	7.016	0.00633731	-0.00229019
0.592627	0.386852	7.116	0.00637673	-0.00221717
0.60127	0.390523	7.216	0.00664056	-0.00221717
0.609668	0.396364	7.316	0.00667304	-0.00229757
0.61748	0.401122	7.416	0.00675594	-0.00235371
0.625586	0.402772	7.516	0.00681025	-0.00235371
0.63418	0.407812	7.616	0.00693988	-0.00244922
0.642969	0.409891	7.716	0.00699081	-0.00249542
0.651025	0.415717	7.816	0.00703707	-0.00255568
0.659082	0.418472	7.916	0.00722711	-0.00262796
0.667334	0.42453	8.016	0.00725925	-0.00262796
0.675977	0.427514	8.116	0.00739188	-0.00267632
0.684375	0.428656	8.216	0.00743722	-0.00272331
0.692432	0.43238	8.316	0.00759681	-0.00278881
0.700781	0.43607	8.416	0.00764182	-0.00280691
0.709229	0.442206	8.516	0.00774009	-0.00289096
0.717676	0.444585	8.616	0.00781526	-0.00287558
0.726123	0.450682	8.716	0.00784311	-0.00290455
0.734424	0.454438	8.816	0.00809873	-0.00296485
0.742773	0.459494	8.916	0.00813037	-0.00292551
0.75083	0.460804	9.016	0.00828116	-0.00302796
0.759277	0.46543	9.116	0.00831862	-0.00269604
0.767773	0.466142	9.216	0.00838334	-0.00283052
0.775977	0.470949	9.316	0.0085098	-0.00290484
0.783936	0.474734	9.416	0.00849548	-0.00303587
0.792285	0.478803	9.516	0.00865922	-0.00305405
0.801074	0.481949	9.616	0.00870884	-0.00312292
0.809619	0.484532	9.716	0.00894234	-0.00321694
0.817578	0.488845	9.816	0.00900024	-0.00323405
0.825732	0.493564	9.916	0.00906103	-0.00328973
0.834326	0.49571	10.016	0.00916643	-0.00329966
0.843066	0.498568	10.116	0.00925061	-0.00337791
0.851025	0.502022	10.216	0.00929479	-0.00344783
0.859131	0.505826	10.316	0.0095437	-0.00344783
0.86748	0.509645	10.416	0.00960031	-0.00349281
0.87627	0.511861	10.516	0.00966763	-0.00355578
0.884766	0.513786	10.616	0.00971375	-0.00357359
0.892871	0.518784	10.716	0.00980144	-0.0036302
0.901221	0.524349	10.816	0.00983308	-0.00366546
0.909521	0.524056	10.916	0.00997449	-0.00371216
0.917822	0.528472	11.016	0.010006	-0.00338155
0.926221	0.531805	11.116	0.0101573	-0.00345592
0.934375	0.53417	11.216	0.0102627	-0.00345592
0.942676	0.537225	11.316	0.0103363	-0.0036253
0.950732	0.538098	11.416	0.0104525	-0.0036253
0.959277	0.544184	11.516	0.0105005	-0.00371574
0.967969	0.544005	11.616	0.010679	-0.00381913
0.97627	0.548088	11.716	0.0107262	-0.00385158
0.984229	0.555092	11.816	0.0108255	-0.00391932
0.992529	0.55534	11.916	0.0110354	-0.00391658
1.00122	0.560412	12.016	0.0109868	-0.00403
1.00967	0.564561	12.116	0.0110762	-0.00408627
1.01768	0.565227	12.216	0.0111477	-0.00408627
1.02588	0.567342	12.316	0.0113341	-0.00414942
1.03462	0.568774	12.416	0.0113917	-0.00412759
1.04346	0.576831	12.516	0.0115123	-0.00421942
1.05156	0.577987	12.616	0.0115915	-0.00423139
1.05972	0.579779	12.716	0.0117289	-0.00433494
1.06807	0.581661	12.816	0.0118433	-0.00433198
1.07666	0.584131	12.916	0.0118873	-0.00392423
1.08491	0.589437	13.016	0.0120291	-0.00445094
1.09287	0.591273	13.116	0.0120839	-0.00450702
1.10107	0.592261	13.216	0.0121502	-0.00456416
1.10942	0.594664	13.316	0.0121666	-0.00462264
1.11777	0.602375	13.416	0.0122029	-0.00465875
1.12617	0.601183	13.516	0.0124841	-0.00473624
1.13442	0.605761	13.616	0.0124942	-0.00476352
1.14272	0.608304	13.716	0.0125855	-0.00476875
1.15078	0.609084	13.816	0.0126763	-0.00480711
1.15918	0.611629	13.916	0.012777	-0.00494936
1.16772	0.616059	14.016	0.012822	-0.00499615
1.17593	0.617938	14.116	0.0128894	-0.00498463
1.18389	0.618497	14.216	0.0131176	-0.00508232
1.19224	0.619851	14.316	0.0131176	-0.00515287
1.20107	0.624692	14.416	0.0133088	-0.00518975
1.20967	0.62999	14.516	0.0133706	-0.00529391
1.21768	0.629751	14.616	0.013406	-0.00499581
1.22583	0.632297	14.716	0.0134679	-0.00544733
1.23442	0.63741	14.816	0.013519	-0.00516703
1.24312	0.635308	14.916	0.0136406	-0.00518346
1.25112	0.642214	15.016	0.0138707	-0.00525515
1.25918	0.643702	15.116	0.0139606	-0.00524976
1.26748	0.647443	15.216	0.0139963	-0.00524976
1.27622	0.647161	15.316	0.0141502	-0.00538444
1.28467	0.650558	15.416	0.0142067	-0.00542807
1.29282	0.65015	15.516	0.0142324	-0.00547163
1.30127	0.656073	15.616	0.0144268	-0.00552779
1.30962	0.658786	15.716	0.0144952	-0.00552779
1.31802	0.658678	15.816	0.01462	-0.00562576
1.32637	0.662347	15.916	0.0146735	-0.00561381
1.33457	0.666346	16.016	0.0148306	-0.00565286
1.34287	0.667342	16.116	0.0148873	-0.00576181
1.35098	0.666918	16.216	0.0149244	-0.00579133
1.35952	0.672191	16.316	0.0150011	-0.00580476
1.36816	0.673724	16.416	0.0150766	-0.00591417
1.37642	0.675558	16.516	0.0153614	-0.00596196
1.38442	0.67765	16.616	0.0153862	-0.00604262
1.39277	0.680665	16.716	0.015509	-0.00622355
1.40146	0.682607	16.816	0.0155563	-0.00622355
1.40986	0.685697	16.916	0.0156357	-0.00595715
1.41768	0.686719	17.016	0.0157562	-0.00594394
1.42573	0.688126	17.116	0.0158877	-0.00593594
1.43437	0.692556	17.216	0.0158521	-0.00605805
1.44316	0.692738	17.316	0.0159148	-0.00613426
1.45117	0.6969	17.416	0.0160907	-0.00618073
1.45928	0.69755	17.516	0.0162327	-0.00627612
1.46758	0.700583	17.616	0.0163003	-0.00628008
1.47627	0.698961	17.716	0.0163969	-0.00632334
1.48467	0.703523	17.816	0.0164866	-0.00637743
1.49268	0.704529	17.916	0.016628	-0.00640784
1.50098	0.706905	18.016	0.0166458	-0.00646853
1.50933	0.708588	18.116	0.0169172	-0.00650648
1.51768	0.709663	18.216	0.0169943	-0.00650648
1.52622	0.712499	18.316	0.0170445	-0.00659025
1.53452	0.714756	18.416	0.0170863	-0.00664183
1.54292	0.716557	18.516	0.0171724	-0.00669712
1.55107	0.719534	18.616	0.0173172	-0.00684316
1.55957	0.716551	18.716	0.0173773	-0.00684316
1.56812	0.723251	18.816	0.0174979	-0.00673504
1.57627	0.720716	18.916	0.0175595	-0.00671712
1.58423	0.721655	19.016	0.0177083	-0.00683597
1.59258	0.726492	19.116	0.0178357	-0.00690233
1.60132	0.725391	19.216	0.0178626	-0.00694449
1.60977	0.725266	19.316	0.0180361	-0.00695093
1.61768	0.729143	19.416	0.0180758	-0.00702175
1.62578	0.730487	19.516	0.0181717	-0.00709777
1.63437	0.732026	19.616	0.0182097	-0.00709578
1.64307	0.735229	19.716	0.0185276	-0.00720038
1.65112	0.737492	19.816	0.0186305	-0.00723782
1.65918	0.73713	19.916	0.018681	-0.00728793
1.66758	0.738547	20.016	0.0186846	-0.00726254
1.67637	0.743054	20.116	0.0187432	-0.00735253
1.68486	0.744128	20.216	0.0188911	-0.00742182
1.69302	0.745404	20.316	0.0189661	-0.00747033
1.70142	0.746348	20.416	0.0190579	-0.00752766
1.70981	0.745954	20.516	0.0192813	-0.0075216
1.71816	0.747816	20.616	0.0193459	-0.00764724
1.72656	0.749683	20.716	0.0194568	-0.00760595
1.73481	0.750526	20.816	0.0195587	-0.00768641
1.74307	0.750293	20.916	0.0196871	-0.00773557
1.75112	0.755207	21.016	0.019734	-0.00773557
1.75962	0.755271	21.116	0.0197691	-0.00779722
1.76821	0.756007	21.216	0.0201074	-0.00785034
1.77642	0.758427	21.316	0.0201253	-0.00785034
1.78433	0.756253	21.416	0.0202076	-0.00795279
1.79258	0.761243	21.516	0.0203067	-0.00794698
1.80127	0.761387	21.616	0.020414	-0.00806748
1.80967	0.761008	21.716	0.0204667	-0.00812196
1.81758	0.762565	21.816	0.0205389	-0.00811929
1.82568	0.764249	21.916	0.02077	-0.00814468
1.83433	0.764485	22.016	0.0208126	-0.00829322
1.84307	0.768776	22.116	0.0209701	-0.00827619
1.85107	0.765902	22.216	0.0210147	-0.00835997
1.85913	0.76761	22.316	0.021215	-0.00838018
1.86748	0.7692	22.416	0.021262	-0.00846427
1.87617	0.769616	22.516	0.021262	-0.00846427
1.88452	0.770215	22.616	0.0215327	-0.00850113
1.89253	0.770694	22.716	0.0215949	-0.00820888
1.90093	0.772237	22.816	0.0216856	-0.00869329
1.90933	0.775109	22.916	0.0217295	-0.0087347
1.91772	0.775555	23.016	0.0219306	-0.00882892
1.92622	0.775987	23.116	0.0219874	-0.00885757
1.93447	0.776622	23.216	0.0220416	-0.00895879
1.94282	0.780125	23.316	0.0222319	-0.00898999
1.95093	0.777633	23.416	0.0223614	-0.00898999
1.95942	0.778634	23.516	0.0225049	-0.00905676
1.96802	0.783383	23.616	0.0225856	-0.00905676
1.97622	0.781468	23.716	0.0227588	-0.00913577
1.98418	0.782987	23.816	0.0228128	-0.00922459
1.99258	0.783502	23.916	0.0228572	-0.00925439
2.00142	0.782431	24.016	0.0229367	-0.00931236
2.00991	0.787677	24.116	0.0233084	-0.00931999
2.01792	0.786342	24.216	0.0234097	-0.00938706
2.02603	0.787801	24.316	0.0233765	-0.00942852
2.03462	0.787734	24.416	0.0234727	-0.00945957
2.04331	0.789313	24.516	0.0235181	-0.00947197
2.05137	0.788239	24.616	0.0236167	-0.00951244
2.05947	0.790443	24.716	0.0237895	-0.00928964
2.06782	0.789257	24.816	0.0238249	-0.00939213
2.07646	0.791696	24.916	0.0240514	-0.00988699
2.08491	0.788957	25.016	0.024142	-0.0099315
2.09292	0.797763	25.116	0.0243052	-0.00998558
2.10122	0.793333	25.216	0.0244169	-0.00998558
2.10947	0.795858	25.316	0.0245012	-0.0101276
2.11772	0.792591	25.416	0.0246543	-0.0101012
2.12607	0.792595	25.516	0.0245148	-0.0101817
2.13428	0.793979	25.616	0.0249812	-0.0101851
2.14263	0.793366	25.716	0.0250428	-0.0102958
2.15068	0.795564	25.816	0.0250995	-0.0103414
2.15923	0.796671	25.916	0.025161	-0.010375
2.16782	0.797309	26.016	0.0252581	-0.0104565
2.17612	0.798224	26.116	0.0253964	-0.0104888
2.18408	0.800825	26.216	0.0254659	-0.0104888
2.19243	0.794567	26.316	0.0256956	-0.010613
2.20112	0.800172	26.416	0.0257657	-0.0106107
2.20957	0.801761	26.516	0.0258449	-0.0106259
2.21743	0.797455	26.616	0.0260267	-0.0106259
2.22559	0.798602	26.716	0.026139	-0.0104827
2.23423	0.798252	26.816	0.0262385	-0.010553
2.24312	0.799355	26.916	0.0263197	-0.0106228
2.25122	0.799498	27.016	0.02676	-0.0110551
2.25933	0.800962	27.116	0.0267923	-0.01111
2.26758	0.799016	27.216	0.0269463	-0.011286
2.27622	0.801146	27.316	0.0270017	-0.0112921
2.28457	0.801244	27.416	0.0270536	-0.011414
2.29253	0.803093	27.516	0.0271461	-0.0114387
2.30088	0.798818	27.616	0.0272293	-0.0114387
2.30933	0.801182	27.716	0.0273648	-0.0115601
2.31772	0.804274	27.816	0.027539	-0.0116167
2.32622	0.801037	27.916	0.027703	-0.0116326
2.33457	0.802085	28.016	0.0277506	-0.0117283
2.34292	0.803981	28.116	0.0278673	-0.0117323
2.35103	0.804006	28.216	0.0280717	-0.0118079
2.35942	0.803485	28.316	0.0281548	-0.0118079
2.36792	0.804185	28.416	0.0282935	-0.0118798
2.37617	0.806223	28.516	0.0285258	-0.0118798
2.38413	0.804147	28.616	0.0287168	-0.0117902
2.39248	0.801328	28.716	0.0287865	-0.0119394
2.40132	0.804359	28.816	0.0288635	-0.0119367
2.40981	0.804956	28.916	0.0291546	-0.0121009
2.41772	0.805022	29.016	0.0290311	-0.0121158
2.42583	0.803064	29.116	0.0292022	-0.012516
2.43433	0.803996	29.216	0.0292571	-0.012518
2.44297	0.803169	29.316	0.0294954	-0.012693
2.45088	0.802666	29.416	0.0295874	-0.012693
2.45884	0.80446	29.516	0.029643	-0.0127905
2.46714	0.804749	29.616	0.0298981	-0.0128397
2.47588	0.804439	29.716	0.0299327	-0.0129049
2.48433	0.80578	29.816	0.0300561	-0.0130341
2.49243	0.804107	29.916	0.0304621	-0.0130341
2.50078	0.804719	30.016	0.0306174	-0.0131201
2.50918	0.803661	30.116	0.0306961	-0.0131201
2.51753	0.803851	30.216	0.0308059	-0.0131648
2.52598	0.804403	30.316	0.0309716	-0.0132578
2.53418	0.803307	30.416	0.0311292	-0.0132578
2.54258	0.803937	30.516	0.03108	-0.0132549
2.55068	0.802264	30.616	0.031152	-0.0133211
2.55933	0.805843	30.716	0.0313683	-0.0134331
2.56807	0.807694	30.816	0.0314747	-0.0134331
2.57642	0.803307	30.916	0.031574	-0.0135531
2.58442	0.802962	31.016	0.0317052	-0.013585
2.59282	0.802991	31.116	0.0319009	-0.013585
2.60151	0.802162	31.216	0.0323983	-0.0139475
2.60991	0.802483	31.316	0.0324646	-0.0139952
2.61772	0.800638	31.416	0.0327051	-0.0140838
2.62578	0.800954	31.516	0.0325195	-0.0141741
2.63437	0.803978	31.616	0.0326572	-0.014263
2.64316	0.803431	31.716	0.032833	-0.0143703
2.65117	0.804226	31.816	0.0329321	-0.0143703
2.65928	0.804494	31.916	0.0329933	-0.0144852
2.66763	0.804944	32.016	0.0330704	-0.0145607
2.67632	0.800014	32.116	0.0332248	-0.0146328
2.68467	0.803905	32.216	0.0334634	-0.0146328
2.69268	0.805813	32.316	0.0334908	-0.0149119
2.70098	0.80258	32.416	0.0336601	-0.0147073
2.70933	0.803071	32.516	0.0337411	-0.0147759
2.71772	0.800036	32.616	0.0343246	-0.0148581
2.72622	0.801514	32.716	0.0343246	-0.014886
2.73457	0.799244	32.816	0.0345298	-0.0149831
2.74292	0.801222	32.916	0.0346945	-0.0149831
2.75107	0.801547	33.016	0.0347843	-0.0151847
2.75962	0.802188	33.116	0.0349754	-0.0151847
2.76807	0.800791	33.216	0.0350452	-0.0154251
2.77622	0.800656	33.316	0.0350489	-0.0154644
2.78408	0.799704	33.416	0.0351201	-0.0156955
2.79238	0.800431	33.516	0.0352805	-0.0157867
2.80107	0.801647	33.616	0.0353603	-0.0158322
2.80957	0.80019	33.716	0.0355085	-0.0159755
2.81738	0.801338	33.816	0.0356739	-0.0161024
2.82549	0.802083	33.916	0.0357981	-0.0161225
2.83403	0.799361	34.016	0.0359963	-0.0162296
2.84277	0.800926	34.116	0.0364855	-0.0162296
2.85078	0.799132	34.216	0.0366172	-0.0163919
2.85894	0.797578	34.316	0.0367123	-0.0164047
2.86729	0.796488	34.416	0.0369046	-0.0165768
2.87603	0.797104	34.516	0.0370288	-0.0166181
2.88447	0.79814	34.616	0.0371296	-0.0166624
2.89258	0.792847	34.716	0.0371292	-0.0165942
2.90107	0.724094	34.816	0.0372385	-0.0167093
2.90957	0.700852	34.916	0.0367019	-0.0167258
2.91152	-0.0663798	34.94	0.0367019	-0.0167258