File: Raw_Data./Tensile Nozzle 0.4 mm/90 Degrees/LH0.2_90D_N0.4/Test Run 4 05-19-21 11 09 39 AM/DAQ- Crosshead, … - (Timed).csv
"File Path: G:\TT\8\Test Run 4 05-19-21 11 09 39 AM\DAQ- Crosshead, … - (Timed).csv   "
"Test: Robin_Tension_4_DIC_Signals 8"
"Test Run: Test Run 4"
"Date: 18/05/2021 15:19:06"
""
""
"Crosshead ","Load ","Time ","Strain 1 ","Strain 2 ","Strain 3 ","Strain 4 ","PoissonRatio "
"mm","kN","sec","mm/mm","mm/mm","mm/mm","mm/mm","%"
"0.000830078","-0.00818835","0.119","2.64683e-05","1.77038e-06","3.004e-05","3.19248e-05","6.68868"
"0.00234375","-0.0083546","0.219","3.08251e-05","6.61712e-06","2.7772e-05","2.89982e-05","21.4667"
"0.00463867","-0.00479618","0.319","3.70155e-05","2.82898e-05","2.31218e-05","2.50195e-05","76.4269"
"0.00766602","-0.00223514","0.419","4.79253e-05","1.18205e-05","5.19631e-05","3.67324e-05","24.6644"
"0.0106934","0.0036984","0.519","6.47384e-05","-9.70282e-06","6.94992e-05","7.19263e-05","-14.9877"
"0.014209","0.00793","0.619","9.8468e-05","-3.64928e-05","0.000106071","8.07165e-05","-37.0606"
"0.0173828","0.0147648","0.719","0.000112908","-5.12182e-05","0.000118185","0.000105292","-45.3628"
"0.0209961","0.0167643","0.819","0.000132474","-5.41475e-05","0.000157296","0.000132066","-40.8741"
"0.0244141","0.0216594","0.919","0.000162442","-7.81835e-05","0.000169797","0.000155502","-48.1301"
"0.0284668","0.0275565","1.019","0.000191375","-9.08314e-05","0.00020009","0.000192218","-47.4625"
"0.0323242","0.0328435","1.119","0.000212367","-0.000119912","0.000220206","0.000212228","-56.4645"
"0.0359375","0.039396","1.219","0.000231123","-0.000150843","0.0002331","0.000239617","-65.2653"
"0.0394531","0.0432704","1.319","0.000276489","-0.000184406","0.000289229","0.000273109","-66.6956"
"0.0430176","0.0481138","1.419","0.000295119","-0.000197851","0.000299936","0.000279238","-67.0411"
"0.0466309","0.0518312","1.519","0.000299341","-0.000214516","0.000311156","0.000288184","-71.6628"
"0.0498047","0.0562569","1.619","0.000338592","-0.000215464","0.000334097","0.000313992","-63.6353"
"0.0532227","0.0608374","1.719","0.000360756","-0.00022823","0.000366095","0.000360444","-63.2644"
"0.0566406","0.0673084","1.819","0.000392703","-0.0001737","0.000386925","0.00037703","-44.2319"
"0.0605469","0.0713052","1.919","0.000410517","-0.000180972","0.000413854","0.000405567","-44.0839"
"0.0641113","0.0783011","2.019","0.000468844","-0.000212425","0.000457322","0.000439435","-45.3082"
"0.0677734","0.0814437","2.119","0.000484508","-0.000231459","0.000474154","0.000447902","-47.772"
"0.0709961","0.0887145","2.219","0.000508561","-0.000230596","0.00051293","0.00049194","-45.3428"
"0.0746582","0.0924931","2.319","0.000566458","-0.000259261","0.000563211","0.000499877","-45.7688"
"0.0781738","0.0990851","2.419","0.000579887","-0.000293885","0.00057419","0.000567576","-50.6797"
"0.0818359","0.100694","2.519","0.000626023","-0.000297728","0.000627916","0.000589648","-47.5586"
"0.0850098","0.104156","2.619","0.000650139","-0.00032314","0.000657406","0.00064121","-49.7032"
"0.0884277","0.112849","2.719","0.000700366","-0.00033153","0.000698089","0.000653954","-47.3367"
"0.0916016","0.113641","2.819","0.000737743","-0.000383451","0.000737131","0.000685986","-51.9762"
"0.0953125","0.11929","2.919","0.000737743","-0.000383451","0.000769332","0.000720962","-51.9762"
"0.098877","0.123242","3.019","0.000785343","-0.000420443","0.000787802","0.000756742","-53.5362"
"0.102148","0.128143","3.119","0.000827166","-0.000439044","0.000842203","0.000817061","-53.0781"
"0.105127","0.135807","3.219","0.000867934","-0.000457628","0.000871529","0.00083936","-52.7261"
"0.108691","0.138513","3.319","0.000882571","-0.000456281","0.000892034","0.000887994","-51.6991"
"0.112256","0.143841","3.419","0.000938678","-0.000510932","0.000945927","0.000904962","-54.431"
"0.115869","0.147823","3.519","0.000943355","-0.000507576","0.000960062","0.000936743","-53.8054"
"0.119434","0.151502","3.619","0.000961929","-0.000525718","0.000989674","0.0009697","-54.6525"
"0.122949","0.155139","3.719","0.000995236","-0.000557126","0.00101312","0.000978964","-55.9793"
"0.126465","0.163071","3.819","0.00103422","-0.000570907","0.00104685","0.00104252","-55.2017"
"0.129932","0.163733","3.919","0.00107583","-0.000607453","0.00108196","0.00105104","-56.4637"
"0.13335","0.173332","4.019","0.00107821","-0.000610412","0.00108841","0.0010876","-56.6135"
"0.136377","0.173977","4.119","0.00110713","-0.000643663","0.00112292","0.00111045","-58.138"
"0.139551","0.180003","4.219","0.00113357","-0.000652109","0.0011452","0.00112348","-57.527"
"0.142725","0.184934","4.319","0.00114717","-0.000658764","0.00117677","0.0011517","-57.4251"
"0.146143","0.190617","4.419","0.00118993","-0.000671302","0.001196","0.00116513","-56.4153"
"0.149609","0.19434","4.519","0.00120984","-0.000666277","0.00121115","0.00121361","-55.0715"
"0.153174","0.201417","4.619","0.00126843","-0.0007026","0.00126381","0.00124093","-55.3913"
"0.156689","0.202156","4.719","0.0012887","-0.000718809","0.00128496","0.00128204","-55.7778"
"0.160547","0.206499","4.819","0.0013071","-0.000720147","0.00133392","0.00129585","-55.095"
"0.164111","0.21277","4.919","0.00135213","-0.000752638","0.00134613","0.00132492","-55.6631"
"0.167529","0.217694","5.019","0.00135213","-0.000752638","0.00140123","0.0013396","-55.6631"
"0.170215","0.220494","5.119","0.00142375","-0.000730855","0.00142764","0.00140253","-51.3331"
"0.17334","0.22348","5.219","0.0014484","-0.000724328","0.00144894","0.00145002","-50.0088"
"0.176514","0.227689","5.319","0.0014938","-0.00076537","0.00150369","0.00146339","-51.2364"
"0.180029","0.233887","5.419","0.00151592","-0.000775383","0.00152763","0.00153225","-51.1493"
"0.183154","0.236709","5.519","0.00153563","-0.000793958","0.00158189","0.00155767","-51.7024"
"0.186475","0.240193","5.619","0.00157718","-0.000798272","0.00159836","0.0015757","-50.6139"
"0.189893","0.246293","5.719","0.00161571","-0.000811896","0.00165172","0.0016323","-50.2501"
"0.19375","0.252912","5.819","0.00164672","-0.000822444","0.00166598","0.00164967","-49.9444"
"0.19751","0.255105","5.919","0.00166049","-0.000843229","0.00168176","0.00168118","-50.7819"
"0.201172","0.261478","6.019","0.00172093","-0.000867175","0.00174207","0.00171313","-50.3899"
"0.204053","0.265499","6.119","0.0017256","-0.000889662","0.00174554","0.00175991","-51.5567"
"0.207227","0.268214","6.219","0.00174803","-0.000893465","0.00178131","0.00177899","-51.1127"
"0.210254","0.268293","6.319","0.0017703","-0.000884104","0.00179985","0.0017857","-49.9409"
"0.213574","0.272459","6.419","0.00180126","-0.000882123","0.0018337","0.0018284","-48.9726"
"0.21665","0.279505","6.519","0.00182989","-0.000909889","0.0018442","0.00183722","-49.7237"
"0.22002","0.284242","6.619","0.00185115","-0.000928752","0.00186402","0.00186191","-50.1716"
"0.223193","0.289186","6.719","0.00189761","-0.000975592","0.00190493","0.0018707","-51.4116"
"0.226758","0.29427","6.819","0.00191306","-0.000988399","0.00191914","0.00191712","-51.6659"
"0.230469","0.298818","6.919","0.00193358","-0.00101108","0.00195263","0.00193628","-52.2906"
"0.234131","0.301943","7.019","0.00194887","-0.00101108","0.00195263","0.00195185","-51.8803"
"0.237207","0.304495","7.119","0.00194887","-0.00101108","0.002052","0.00195185","-51.8803"
"0.240674","0.308737","7.219","0.00207245","-0.00107927","0.00206424","0.00204026","-52.077"
"0.243896","0.313909","7.319","0.00210089","-0.00107864","0.00210033","0.00208957","-51.3421"
"0.247217","0.316699","7.419","0.00214235","-0.00109708","0.00213362","0.00210436","-51.2092"
"0.250049","0.318527","7.519","0.00218256","-0.00113067","0.00217809","0.00216436","-51.8048"
"0.253271","0.325381","7.619","0.00220098","-0.0011447","0.0022096","0.00218265","-52.0087"
"0.256494","0.327362","7.719","0.00224731","-0.00113413","0.00224156","0.00219237","-50.4661"
"0.260059","0.332874","7.819","0.00226772","-0.00115412","0.00230938","0.00223693","-50.8934"
"0.263477","0.335769","7.919","0.00233393","-0.00117064","0.00233588","0.0022862","-50.1575"
"0.266943","0.339635","8.019","0.0023499","-0.00118733","0.00235408","0.00233609","-50.5268"
"0.27002","0.342983","8.119","0.0023672","-0.00121681","0.00238245","0.00235639","-51.4029"
"0.273486","0.349264","8.219","0.00240258","-0.00119937","0.0024206","0.00240755","-49.9201"
"0.276904","0.354361","8.319","0.00240258","-0.00121636","0.00245905","0.00240755","-50.6272"
"0.280518","0.356703","8.419","0.00245895","-0.00121634","0.00249161","0.00245324","-49.4658"
"0.283643","0.359352","8.519","0.00247814","-0.00118619","0.00252902","0.00250354","-47.8661"
"0.287012","0.367048","8.619","0.00253488","-0.00124549","0.00255904","0.00252306","-49.1341"
"0.290088","0.366137","8.719","0.00254651","-0.0012261","0.00257366","0.00257212","-48.1483"
"0.293604","0.373509","8.819","0.00257256","-0.0012455","0.00259145","0.0025822","-48.4148"
"0.297021","0.37481","8.919","0.00257415","-0.00126108","0.00259386","0.00259016","-48.9902"
"0.300488","0.382735","9.019","0.00260176","-0.00128261","0.00261435","0.0026328","-49.2978"
"0.303369","0.382183","9.119","0.00266331","-0.00129881","0.0026767","0.0026328","-48.7668"
"0.306592","0.388844","9.219","0.00269557","-0.00130799","0.00272997","0.00270907","-48.5237"
"0.309961","0.392185","9.319","0.00274057","-0.00132663","0.00274368","0.00273074","-48.4071"
"0.313574","0.398372","9.419","0.00275969","-0.00135903","0.00276472","0.00276379","-49.2457"
"0.316895","0.400814","9.519","0.00280848","-0.00134599","0.00280179","0.00278999","-47.9259"
"0.320557","0.403059","9.619","0.00281906","-0.00136906","0.00281613","0.00281024","-48.5644"
"0.323779","0.407276","9.719","0.00286046","-0.00140912","0.00287953","0.00285504","-49.262"
"0.327295","0.413787","9.819","0.00289266","-0.0014122","0.00289832","0.00287783","-48.8201"
"0.330518","0.416761","9.919","0.00292017","-0.00142765","0.00293952","0.00291932","-48.8893"
"0.333887","0.420548","10.019","0.00296416","-0.00145495","0.00296419","0.00294647","-49.0847"
"0.336768","0.423948","10.119","0.00298815","-0.0014738","0.00300059","0.00300356","-49.3215"
"0.339941","0.426839","10.219","0.00303674","-0.00146617","0.00304421","0.00302025","-48.2811"
"0.343066","0.431081","10.319","0.00305956","-0.00147892","0.00306758","0.00304675","-48.3377"
"0.346484","0.433819","10.419","0.00307096","-0.00152527","0.00312653","0.00309735","-49.6675"
"0.349902","0.438585","10.519","0.00313032","-0.00152593","0.00314957","0.00313171","-48.7468"
"0.353418","0.440185","10.619","0.00313919","-0.00154818","0.00317845","0.00317174","-49.3178"
"0.356836","0.446689","10.719","0.00315547","-0.00154985","0.00318637","0.00318539","-49.1163"
"0.360645","0.449875","10.819","0.0032062","-0.00157276","0.00324056","0.00324309","-49.0537"
"0.36416","0.456788","10.919","0.00323597","-0.00160722","0.00327006","0.0032612","-49.6673"
"0.367529","0.453976","11.019","0.00325294","-0.00159724","0.00328539","0.00327874","-49.1014"
"0.370215","0.458736","11.119","0.0032786","-0.00161109","0.00330972","0.00331013","-49.1396"
"0.373242","0.461026","11.219","0.00330794","-0.00164381","0.00333076","0.00331013","-49.6929"
"0.376465","0.466866","11.319","0.00330992","-0.00165143","0.00334414","0.00334859","-49.8933"
"0.37998","0.470434","11.419","0.00334195","-0.00166586","0.00335778","0.00335555","-49.8469"
"0.383105","0.473887","11.519","0.00336091","-0.0016831","0.00337232","0.0033893","-50.0787"
"0.386426","0.475863","11.619","0.00342775","-0.00168812","0.003426","0.00341656","-49.2486"
"0.389844","0.481036","11.719","0.00343695","-0.00169291","0.00343834","0.00342898","-49.2562"
"0.393701","0.484144","11.819","0.00346593","-0.00170112","0.00347922","0.00346308","-49.0812"
"0.397461","0.489375","11.919","0.00354764","-0.00169086","0.00353243","0.00348928","-47.6615"
"0.401074","0.49379","12.019","0.00358807","-0.00169778","0.00359066","0.00355935","-47.3174"
"0.403906","0.494852","12.119","0.00363631","-0.00169685","0.00361719","0.00357836","-46.6641"
"0.407129","0.498939","12.219","0.00367661","-0.00173434","0.00364467","0.00363104","-47.1723"
"0.410156","0.499951","12.319","0.00373258","-0.00174023","0.00370464","0.00366752","-46.6227"
"0.413525","0.505148","12.419","0.00375329","-0.00174129","0.00373616","0.00368378","-46.3937"
"0.416602","0.511558","12.519","0.00377009","-0.00175513","0.00377321","0.00373443","-46.5541"
"0.419971","0.514025","12.619","0.00380977","-0.00176189","0.00379473","0.00375123","-46.2466"
"0.423145","0.514445","12.719","0.00384936","-0.00180621","0.0038522","0.00381947","-46.9223"
"0.426758","0.519965","12.819","0.0038786","-0.00182427","0.00388834","0.00383297","-47.0342"
"0.430469","0.523018","12.919","0.00389483","-0.00183605","0.0038961","0.00387728","-47.1407"
"0.434131","0.524751","13.019","0.00395307","-0.00186496","0.00397867","0.00390802","-47.1775"
"0.437158","0.528053","13.119","0.0039777","-0.00187744","0.00399817","0.00395986","-47.1991"
"0.440723","0.537483","13.219","0.0039777","-0.00188179","0.00403599","0.00398159","-47.3085"
"0.443945","0.53673","13.319","0.00402879","-0.00189137","0.00406361","0.00403075","-46.9464"
"0.447314","0.540286","13.419","0.00406926","-0.00189373","0.00411206","0.00409563","-46.5375"
"0.450146","0.541183","13.519","0.00410867","-0.00190266","0.00414134","0.00411509","-46.3084"
"0.453418","0.544948","13.619","0.00413301","-0.00190482","0.00416266","0.00415349","-46.088"
"0.456738","0.54911","13.719","0.00418353","-0.00195531","0.00419431","0.00416503","-46.7383"
"0.4604","0.553425","13.819","0.00419738","-0.0019454","0.00420646","0.00419793","-46.348"
"0.46377","0.555409","13.919","0.00421108","-0.00194947","0.00424266","0.00422889","-46.2938"
"0.467236","0.560028","14.019","0.00424741","-0.00196206","0.00426049","0.00424424","-46.1943"
"0.470361","0.562559","14.119","0.00426673","-0.00197365","0.00431787","0.00428834","-46.2567"
"0.473828","0.563497","14.219","0.00433698","-0.00202752","0.00433376","0.00432246","-46.7496"
"0.477246","0.571498","14.319","0.00434938","-0.00201478","0.00434665","0.00435439","-46.3234"
"0.480859","0.576128","14.419","0.00440276","-0.00202055","0.00439753","0.00437289","-45.8928"
"0.483936","0.574825","14.519","0.00445351","-0.00205181","0.00443854","0.00439761","-46.0717"
"0.487305","0.580989","14.619","0.00446554","-0.002068","0.00448657","0.00446891","-46.3102"
"0.490381","0.583238","14.719","0.00451234","-0.00208574","0.00451555","0.00448955","-46.223"
"0.493848","0.590155","14.819","0.00452706","-0.0020816","0.00457864","0.00452498","-45.9813"
"0.497217","0.590105","14.919","0.0045854","-0.00211896","0.00459737","0.00457229","-46.211"
"0.500732","0.592978","15.019","0.00460726","-0.00211433","0.00461933","0.00461624","-45.8913"
"0.503564","0.592937","15.119","0.00463897","-0.00212226","0.00466941","0.00464371","-45.7485"
"0.506836","0.597551","15.219","0.0046583","-0.00212606","0.00467935","0.00466757","-45.6403"
"0.510156","0.601094","15.319","0.00467952","-0.0021618","0.00472371","0.00470758","-46.197"
"0.51377","0.603921","15.419","0.00470898","-0.0021548","0.00474839","0.00474907","-45.7594"
"0.51709","0.613003","15.519","0.00473205","-0.0021611","0.0047841","0.00478073","-45.6694"
"0.520752","0.612436","15.619","0.0047825","-0.00219255","0.00482369","0.00480599","-45.8453"
"0.523975","0.614729","15.719","0.00479086","-0.00218448","0.00483704","0.00485589","-45.5968"
"0.52749","0.619143","15.819","0.00483668","-0.00220934","0.00487276","0.00487783","-45.6789"
"0.530713","0.621932","15.919","0.00485551","-0.00219839","0.00489371","0.00488155","-45.2762"
"0.534082","0.620648","16.019","0.00489765","-0.00222183","0.00494078","0.00493413","-45.3652"
"0.536914","0.628071","16.119","0.00494975","-0.00223516","0.00495736","0.00496003","-45.157"
"0.540088","0.628608","16.219","0.00496979","-0.00223698","0.00498975","0.00498649","-45.0116"
"0.543164","0.629968","16.319","0.00501888","-0.00231015","0.00501815","0.00500393","-46.0292"
"0.546631","0.633579","16.419","0.00502921","-0.0023089","0.00502068","0.00503968","-45.9098"
"0.55","0.636803","16.519","0.00507198","-0.00231219","0.00505319","0.00503601","-45.5875"
"0.553516","0.638354","16.619","0.00508678","-0.00231602","0.00506851","0.00505473","-45.5302"
"0.556885","0.642151","16.719","0.00513531","-0.002349","0.00513658","0.00510624","-45.7421"
"0.560693","0.648517","16.819","0.00519313","-0.00236171","0.00515843","0.00513213","-45.4776"
"0.564258","0.651296","16.919","0.00522259","-0.00237683","0.00519448","0.00517073","-45.5106"
"0.567627","0.653887","17.019","0.00526394","-0.00238711","0.00522415","0.00518098","-45.3484"
"0.570264","0.650846","17.119","0.00529946","-0.00240566","0.00526055","0.00523921","-45.3944"
"0.57334","0.657068","17.219","0.00533017","-0.0024209","0.00530485","0.0052814","-45.4188"
"0.576514","0.655881","17.319","0.00533017","-0.0024209","0.00530485","0.0052814","-45.4188"
"0.580029","0.661935","17.419","0.00536623","-0.00243871","0.0053979","0.00535722","-45.4455"
"0.583105","0.664029","17.519","0.00543262","-0.00246539","0.00543336","0.00538777","-45.3812"
"0.586426","0.668591","17.619","0.0054633","-0.00245739","0.0054751","0.00545807","-44.98"
"0.589893","0.669674","17.719","0.00549803","-0.00247693","0.00549509","0.00545807","-45.0512"
"0.593701","0.673542","17.819","0.00552466","-0.00247945","0.00553907","0.0055163","-44.8797"
"0.597461","0.678238","17.919","0.00556275","-0.00249146","0.00557567","0.00553108","-44.7883"
"0.601074","0.681223","18.019","0.00558537","-0.00250024","0.00560089","0.00555888","-44.7641"
"0.603906","0.681878","18.119","0.00560103","-0.00250007","0.00566269","0.00560423","-44.6359"
"0.60708","0.684933","18.219","0.00565992","-0.00250056","0.00566857","0.00563982","-44.1801"
"0.610107","0.688597","18.319","0.00567166","-0.00252371","0.00570528","0.00566817","-44.4968"
"0.613477","0.688607","18.419","0.0057089","-0.0025349","0.00571959","0.00569041","-44.4026"
"0.616553","0.695516","18.519","0.00573361","-0.0025387","0.00575155","0.00574198","-44.2775"
"0.619873","0.693864","18.619","0.0057789","-0.00255923","0.00577961","0.00575709","-44.2858"
"0.623096","0.698315","18.719","0.00579986","-0.00255291","0.00579236","0.005775","-44.0168"
"0.626709","0.701805","18.819","0.00582127","-0.00257295","0.00586175","0.00581273","-44.1991"
"0.630469","0.704134","18.919","0.00589919","-0.00259139","0.00588416","0.00586363","-43.9279"
"0.634131","0.705989","19.019","0.00592234","-0.00259127","0.00592517","0.00589991","-43.7542"
"0.637158","0.708521","19.119","0.0059613","-0.00262207","0.00593986","0.00591482","-43.9849"
"0.640723","0.710529","19.219","0.0059748","-0.00262745","0.0059606","0.00595123","-43.9755"
"0.643945","0.714367","19.319","0.00599956","-0.00263931","0.00598691","0.00597953","-43.9917"
"0.647314","0.716408","19.419","0.00604484","-0.00265712","0.00604142","0.00597953","-43.9568"
"0.650147","0.72119","19.519","0.00607368","-0.00266701","0.00609513","0.00605941","-43.9109"
"0.653369","0.723083","19.619","0.00611969","-0.00270892","0.00613606","0.00609459","-44.2656"
"0.656641","0.723212","19.719","0.00613115","-0.00271496","0.0061577","0.00614201","-44.2814"
"0.660303","0.727694","19.819","0.00614136","-0.00272531","0.00616849","0.00616297","-44.3763"
"0.663623","0.73167","19.919","0.00615639","-0.00274399","0.00618988","0.00618501","-44.5714"
"0.667041","0.734112","20.019","0.00623147","-0.00272689","0.00626751","0.00624305","-43.76"
"0.670068","0.73542","20.119","0.00624945","-0.00273797","0.0062837","0.00627102","-43.8114"
"0.673486","0.738523","20.219","0.00626843","-0.00273668","0.00634141","0.00632236","-43.6581"
"0.676855","0.741299","20.319","0.0063212","-0.00277389","0.00636255","0.00634541","-43.8823"
"0.680469","0.743468","20.419","0.00632468","-0.00278674","0.00636787","0.00637226","-44.0614"
"0.683545","0.743329","20.519","0.00634752","-0.00278186","0.00638393","0.00638289","-43.8259"
"0.686865","0.745772","20.619","0.00637139","-0.00280443","0.00640539","0.00642781","-44.016"
"0.689941","0.747137","20.719","0.00643702","-0.00281681","0.00644535","0.00643135","-43.7595"
"0.693359","0.750975","20.819","0.00645461","-0.00282618","0.00645821","0.00647202","-43.7854"
"0.696777","0.75322","20.919","0.00646468","-0.00284145","0.00649469","0.00648986","-43.9535"
"0.700244","0.757211","21.019","0.00652051","-0.00285349","0.00651562","0.00650088","-43.7618"
"0.703125","0.75752","21.119","0.0065775","-0.00284046","0.00657677","0.00655869","-43.1845"
"0.706299","0.760816","21.219","0.00662732","-0.00285896","0.00659429","0.00656799","-43.139"
"0.709668","0.762276","21.319","0.00664248","-0.00285995","0.00659857","0.00658455","-43.0555"
"0.713232","0.763442","21.419","0.00666899","-0.00286383","0.00662579","0.00660882","-42.9425"
"0.716553","0.765769","21.519","0.00674029","-0.00286687","0.00669196","0.00660882","-42.5333"
"0.720166","0.769996","21.619","0.00676903","-0.00286243","0.00674048","0.00668841","-42.2872"
"0.723486","0.771164","21.719","0.00681922","-0.00288907","0.00677128","0.00671657","-42.3666"
"0.726953","0.771266","21.819","0.00686966","-0.0028911","0.00684291","0.00678662","-42.0851"
"0.730225","0.776549","21.919","0.00690074","-0.00291503","0.0068608","0.00680233","-42.2423"
"0.733594","0.776607","22.019","0.00692083","-0.00292676","0.00688549","0.00682365","-42.2891"
"0.736523","0.77811","22.119","0.00695028","-0.00292992","0.00693448","0.00685307","-42.1554"
"0.739697","0.773945","22.219","0.00699389","-0.00293968","0.00698092","0.00688912","-42.0321"
"0.740381","-0.0176279","22.238","0.00699389","-0.00293968","0.00700788","0.00693822","-42.0321"