File: Raw_Data./Tensile Nozzle 0.4 mm/45 Degrees/LH0.05_45D_N0.4/3/Test Run 1 02-21-20 12 15 43 PM/DAQ- Crosshead, … - (Timed).txt
File Path: C:\Users\MTS 300\Desktop\robin\eprouvette 45 lh005\test 3\Test Run 1 02-21-20 12 15 43 PM\DAQ- Crosshead, … - (Timed).txt
Test: Tensile test LEI 11
Test Run: Test Run 1
Date: 21/02/2020 12:13:41

Crosshead 	Load 	Time 	Strain 1 	Strain 2
mm	kN	sec	mm/mm	mm/mm
0.00375977	-0.000505781	0.114	-1.1756e-05	1.36296e-05
0.00991211	0.00473909	0.214	-1.44049e-05	-2.23055e-05
0.0174316	0.0109669	0.314	4.37841e-05	-5.20975e-05
0.0253906	0.0215286	0.414	0.0001231	-3.83339e-05
0.0334961	0.027131	0.514	0.000202302	-0.000111831
0.0422852	0.0400414	0.614	0.000209102	-0.000120849
0.0515625	0.046331	0.714	0.000336802	-0.000192506
0.0602539	0.0575944	0.814	0.000369579	-0.000219882
0.0689453	0.0637854	0.914	0.000478838	-0.000233388
0.0775391	0.0736931	1.014	0.000564924	-0.000278605
0.0869141	0.0816317	1.114	0.000663961	-0.000278605
0.0958008	0.0903373	1.214	0.000711809	-0.000225712
0.104297	0.101028	1.314	0.000775826	-0.000289315
0.112695	0.106588	1.414	0.000925609	-0.00032711
0.121826	0.11815	1.514	0.000981333	-0.000346064
0.130566	0.125953	1.614	0.00105158	-0.000366144
0.138916	0.130973	1.714	0.00111715	-0.000361055
0.147363	0.141927	1.814	0.00122337	-0.00037688
0.156152	0.151015	1.914	0.00127662	-0.000418389
0.164746	0.15929	2.014	0.00131149	-0.000454879
0.173486	0.166766	2.114	0.00146112	-0.000519416
0.182031	0.174399	2.214	0.00149174	-0.000498328
0.190674	0.183171	2.314	0.00157154	-0.000509833
0.198926	0.191875	2.414	0.00161892	-0.000559474
0.207617	0.199168	2.514	0.00172435	-0.000550272
0.216309	0.208394	2.614	0.0017728	-0.000746274
0.224707	0.217031	2.714	0.00181554	-0.000733884
0.232812	0.224164	2.814	0.00193996	-0.0007549
0.241406	0.229395	2.914	0.00204962	-0.000733717
0.250293	0.238501	3.014	0.0021669	-0.000776666
0.25874	0.24815	3.114	0.0021669	-0.000776666
0.266797	0.25516	3.214	0.00238215	-0.000768504
0.274951	0.263714	3.314	0.00240056	-0.000816271
0.283594	0.270619	3.414	0.00246412	-0.000817212
0.292187	0.279443	3.514	0.00256789	-0.000839954
0.300146	0.285367	3.614	0.00265798	-0.000827399
0.308252	0.293314	3.714	0.00273485	-0.000900391
0.316699	0.301438	3.814	0.00277223	-0.00088963
0.325342	0.308448	3.914	0.00291523	-0.000938006
0.333789	0.313309	4.014	0.00297355	-0.000936494
0.341895	0.321427	4.114	0.00301631	-0.000917433
0.350391	0.329123	4.214	0.00309984	-0.00101171
0.358789	0.333706	4.314	0.0031365	-0.00103314
0.367334	0.345474	4.414	0.00327422	-0.00100382
0.375781	0.351849	4.514	0.00331372	-0.00104539
0.384082	0.358456	4.614	0.00340661	-0.00104651
0.392334	0.36577	4.714	0.00351891	-0.00115439
0.400635	0.373914	4.814	0.00354442	-0.00121492
0.409229	0.382062	4.914	0.00363306	-0.00119833
0.417822	0.384458	5.014	0.00367295	-0.00124282
0.425977	0.39357	5.114	0.00378204	-0.00130897
0.433984	0.3994	5.214	0.00389852	-0.00133922
0.442334	0.407837	5.314	0.00397477	-0.00130456
0.451074	0.413637	5.414	0.00404533	-0.00135018
0.459277	0.425439	5.514	0.00408397	-0.00138725
0.467334	0.42697	5.614	0.0041768	-0.00140243
0.475537	0.436654	5.714	0.00425313	-0.00137868
0.484277	0.442549	5.814	0.00436805	-0.00138204
0.492871	0.45055	5.914	0.00439806	-0.00142234
0.500977	0.454547	6.014	0.00445865	-0.00144281
0.509082	0.459697	6.114	0.00455773	-0.0014323
0.517529	0.466521	6.214	0.0046313	-0.0015047
0.526123	0.474675	6.314	0.00477032	-0.00153169
0.534619	0.481218	6.414	0.00479843	-0.00151382
0.542627	0.487976	6.514	0.00497398	-0.00158119
0.551123	0.493478	6.614	0.00501039	-0.00162641
0.559473	0.498548	6.714	0.00507009	-0.00159102
0.568018	0.506296	6.814	0.00517552	-0.00165976
0.576367	0.510544	6.914	0.00522767	-0.00171225
0.584619	0.517202	7.014	0.00536985	-0.00183151
0.592725	0.523162	7.114	0.00541129	-0.00182333
0.600928	0.528823	7.214	0.00550558	-0.00186502
0.609375	0.535729	7.314	0.00557764	-0.00190409
0.617773	0.541217	7.414	0.00561201	-0.00190436
0.625879	0.548441	7.514	0.00572696	-0.0019069
0.633936	0.553971	7.614	0.0057714	-0.00188936
0.642334	0.561078	7.714	0.00588005	-0.00193377
0.651172	0.566663	7.814	0.00591122	-0.0019516
0.659424	0.572576	7.914	0.00600215	-0.00192107
0.66748	0.578462	8.014	0.00606859	-0.00195481
0.675586	0.585149	8.114	0.00612092	-0.00196024
0.684277	0.591077	8.214	0.00622651	-0.00200519
0.692773	0.597599	8.314	0.00626803	-0.00197403
0.700781	0.601048	8.414	0.00642652	-0.00208601
0.708887	0.607053	8.514	0.00647744	-0.0020953
0.717383	0.614641	8.614	0.00659189	-0.0021212
0.726025	0.61849	8.714	0.00664066	-0.00215857
0.734521	0.628413	8.814	0.00673762	-0.00218191
0.742578	0.629077	8.914	0.0068469	-0.0022305
0.750928	0.637814	9.014	0.00691802	-0.00227227
0.759229	0.644687	9.114	0.00701289	-0.00229069
0.767676	0.650115	9.214	0.00709964	-0.00239328
0.775977	0.654453	9.314	0.00717957	-0.00240012
0.784228	0.660677	9.414	0.00725029	-0.00237346
0.792383	0.663779	9.514	0.00733362	-0.00241579
0.800586	0.671651	9.614	0.00742467	-0.0024136
0.80918	0.674136	9.714	0.00747117	-0.00243794
0.817822	0.680323	9.814	0.00754976	-0.00244881
0.825977	0.688652	9.914	0.00766124	-0.00247773
0.833984	0.69398	10.014	0.00775756	-0.00249343
0.842383	0.698828	10.114	0.00781132	-0.00250522
0.851123	0.70524	10.214	0.00786975	-0.00249427
0.859424	0.707542	10.314	0.00803567	-0.00254111
0.867529	0.711951	10.414	0.00804655	-0.00257254
0.875732	0.718301	10.514	0.00815675	-0.00255747
0.884473	0.724047	10.614	0.00826016	-0.0025912
0.893066	0.730724	10.714	0.00831266	-0.00262231
0.901172	0.736264	10.814	0.00837809	-0.00269684
0.909277	0.740513	10.914	0.00839096	-0.00266705
0.917676	0.741597	11.014	0.00854302	-0.00271302
0.926221	0.750016	11.114	0.00859134	-0.00277271
0.93457	0.755104	11.214	0.00866526	-0.00282942
0.94248	0.759366	11.314	0.00869848	-0.00282615
0.95083	0.763914	11.414	0.00882898	-0.00293146
0.95918	0.771524	11.514	0.00887673	-0.00292182
0.967676	0.778432	11.614	0.00893005	-0.00291474
0.976025	0.781225	11.714	0.00910064	-0.00294982
0.984326	0.78906	11.814	0.00914983	-0.0030094
0.99248	0.790111	11.914	0.0092689	-0.00302241
1.00078	0.796996	12.014	0.00934506	-0.00300936
1.00928	0.803675	12.114	0.00945676	-0.00300198
1.01772	0.808321	12.214	0.00952928	-0.00302602
1.02583	0.812972	12.314	0.00958404	-0.00308324
1.03394	0.815922	12.414	0.009684	-0.00308388
1.04243	0.822709	12.514	0.00979491	-0.00306258
1.05132	0.828597	12.614	0.00987571	-0.00308788
1.05972	0.834699	12.714	0.00992402	-0.00309667
1.06787	0.838836	12.814	0.0100927	-0.00315663
1.07603	0.841966	12.914	0.0101	-0.00318413
1.08467	0.846704	13.014	0.0101485	-0.00319321
1.09316	0.851854	13.114	0.0102465	-0.00324689
1.10117	0.856654	13.214	0.0103298	-0.00330012
1.10923	0.862919	13.314	0.0104327	-0.00328245
1.11758	0.866585	13.414	0.0104327	-0.00328245
1.12612	0.870911	13.514	0.0106038	-0.00340206
1.13452	0.876626	13.614	0.0106626	-0.00345032
1.14253	0.880907	13.714	0.0106876	-0.00344569
1.15088	0.885903	13.814	0.0108119	-0.00348617
1.15913	0.891879	13.914	0.010908	-0.0034786
1.16758	0.895827	14.014	0.0110375	-0.00348734
1.17583	0.899483	14.114	0.0110542	-0.00347797
1.18398	0.90391	14.214	0.0111038	-0.00356285
1.19219	0.909103	14.314	0.0112453	-0.00358381
1.20049	0.911802	14.414	0.0112868	-0.00353047
1.20913	0.917175	14.514	0.0114031	-0.00355123
1.21777	0.922819	14.614	0.0114411	-0.00359897
1.22593	0.926726	14.714	0.0115691	-0.00359206
1.23398	0.931404	14.814	0.0116136	-0.00358586
1.24238	0.936308	14.914	0.0116771	-0.00363602
1.25112	0.941826	15.014	0.0118206	-0.00362768
1.25928	0.945902	15.114	0.0118436	-0.00368675
1.26724	0.94982	15.214	0.0119608	-0.00371726
1.27534	0.95499	15.314	0.0120191	-0.00371063
1.28408	0.957062	15.414	0.0121736	-0.00378217
1.29268	0.960637	15.514	0.0122437	-0.00379702
1.30073	0.965367	15.614	0.0123229	-0.00383377
1.30884	0.970548	15.714	0.01243	-0.00375962
1.31719	0.975078	15.814	0.0125332	-0.00388909
1.32578	0.977215	15.914	0.0125997	-0.00399482
1.33418	0.981702	16.014	0.0126457	-0.00396409
1.34219	0.987035	16.114	0.012806	-0.00399337
1.35063	0.990764	16.214	0.012854	-0.00403646
1.35894	0.993747	16.314	0.0128509	-0.00407591
1.36748	0.999007	16.414	0.0129986	-0.00409103
1.37593	1.00369	16.514	0.0130163	-0.00406501
1.38433	1.0078	16.614	0.0130879	-0.00413224
1.39253	1.01177	16.714	0.0131403	-0.00410707
1.40083	1.01354	16.814	0.0132875	-0.00411354
1.40937	1.01941	16.914	0.0133254	-0.00417133
1.41782	1.0229	17.014	0.0133785	-0.00417793
1.42598	1.026	17.114	0.0134968	-0.00418886
1.43403	1.03004	17.214	0.0135417	-0.00425317
1.44238	1.03516	17.314	0.0137268	-0.00427585
1.45112	1.03952	17.414	0.0137884	-0.00428327
1.45933	1.04027	17.514	0.0138726	-0.00434991
1.46743	1.04596	17.614	0.0140159	-0.0043856
1.47549	1.04961	17.714	0.0140706	-0.00433369
1.48418	1.05494	17.814	0.0141494	-0.004424
1.49272	1.05765	17.914	0.0142189	-0.00442764
1.50078	1.06257	18.014	0.0143766	-0.00455096
1.50889	1.06393	18.114	0.0144339	-0.00450725
1.51733	1.0689	18.214	0.0145147	-0.00451129
1.52593	1.06989	18.314	0.0146299	-0.00459449
1.53442	1.07635	18.414	0.0146794	-0.00455479
1.54248	1.07921	18.514	0.0147845	-0.00464228
1.55083	1.08344	18.614	0.0148231	-0.00461021
1.55918	1.08577	18.714	0.0150094	-0.00459422
1.56763	1.09139	18.814	0.0150745	-0.00465245
1.57607	1.09518	18.914	0.0151996	-0.00465503
1.58438	1.09657	19.014	0.0152675	-0.00468227
1.59258	1.0982	19.114	0.0153908	-0.00465264
1.60083	1.1029	19.214	0.0154828	-0.00471876
1.60938	1.10541	19.314	0.0155394	-0.00468531
1.61797	1.10929	19.414	0.0156876	-0.00479308
1.62607	1.11211	19.514	0.0156876	-0.00479308
1.63413	1.11386	19.614	0.0158071	-0.00485952
1.64248	1.11714	19.714	0.0158884	-0.00485751
1.65117	1.12203	19.814	0.0159265	-0.00486835
1.65938	1.12215	19.914	0.016065	-0.00497131
1.66743	1.12362	20.014	0.0161088	-0.004956
1.67554	1.12566	20.114	0.0162074	-0.00502996
1.68423	1.13379	20.214	0.0163223	-0.00502248
1.69282	1.1353	20.314	0.0164494	-0.0050852
1.70093	1.13565	20.414	0.0165293	-0.00509413
1.70903	1.13916	20.514	0.0165921	-0.00507808
1.71753	1.14196	20.614	0.0167862	-0.00508308
1.72607	1.14345	20.714	0.0168621	-0.00511946
1.73447	1.14758	20.814	0.0170142	-0.00514035
1.74248	1.15098	20.914	0.0171276	-0.00516198
1.75088	1.15193	21.014	0.0172522	-0.00516567
1.75918	1.15419	21.114	0.0173217	-0.00521683
1.76768	1.15683	21.214	0.0173676	-0.0052062
1.77607	1.16058	21.314	0.0175916	-0.0052565
1.78428	1.15974	21.414	0.0176632	-0.00530192
1.79243	1.16272	21.514	0.0177487	-0.00535562
1.80068	1.16543	21.614	0.0178181	-0.00534192
1.80918	1.16638	21.714	0.0179929	-0.00542763
1.81763	1.16808	21.814	0.018082	-0.00537101
1.82568	1.16951	21.914	0.0181231	-0.00545375
1.83374	1.17029	22.014	0.018304	-0.00552012
1.84224	1.17327	22.114	0.0184112	-0.0055739
1.85112	1.17446	22.214	0.0185338	-0.00554252
1.85942	1.1747	22.314	0.0185957	-0.00559513
1.86753	1.1779	22.414	0.0187669	-0.00560601
1.87568	1.17728	22.514	0.0188201	-0.00565091
1.88433	1.18394	22.614	0.0188723	-0.00563924
1.89292	1.18313	22.714	0.0189904	-0.00562389
1.90103	1.18761	22.814	0.0191618	-0.00567368
1.90918	1.1878	22.914	0.0192895	-0.00567561
1.91768	1.18985	23.014	0.0193218	-0.00568631
1.92632	1.18946	23.114	0.019536	-0.00574663
1.93486	1.19392	23.214	0.019597	-0.00573716
1.94292	1.19337	23.314	0.019656	-0.00575576
1.95127	1.19586	23.414	0.0198347	-0.00574577
1.95957	1.19716	23.514	0.0199652	-0.00580837
1.96797	1.19837	23.614	0.0201046	-0.00580218
1.97622	1.19604	23.714	0.020292	-0.00589177
1.98447	1.19896	23.814	0.0204742	-0.00593107
1.99258	1.20074	23.914	0.0205697	-0.00595089
2.00088	1.19782	24.014	0.0206429	-0.00598642
2.00947	1.20153	24.114	0.0207811	-0.00602566
2.01802	1.20468	24.214	0.0208302	-0.00603831
2.02617	1.20287	24.314	0.0211149	-0.0060631
2.03423	1.20563	24.414	0.0211596	-0.00601867
2.04258	1.20503	24.514	0.0212907	-0.00605147
2.05127	1.20555	24.614	0.0214262	-0.006054
2.05947	1.20623	24.714	0.0214998	-0.00605965
2.06753	1.20563	24.814	0.0216709	-0.00611368
2.07568	1.20732	24.914	0.0217379	-0.00609771
2.08452	1.20976	25.014	0.0219711	-0.00616369
2.09316	1.21089	25.114	0.0220681	-0.0061696
2.10132	1.20863	25.214	0.0222165	-0.00624433
2.10938	1.21082	25.314	0.0223637	-0.00626268
2.11782	1.21108	25.414	0.0224365	-0.00627178
2.12622	1.21235	25.514	0.0225582	-0.00636421
2.13462	1.21211	25.614	0.0226192	-0.00640645
2.14253	1.21282	25.714	0.0228913	-0.00643487
2.15083	1.21502	25.814	0.0229464	-0.00644584
2.15908	1.21364	25.914	0.0230923	-0.00647818
2.16758	1.21382	26.014	0.0231621	-0.00649684
2.17598	1.2133	26.114	0.0233101	-0.00647942
2.18423	1.2141	26.214	0.0234862	-0.00646625
2.19248	1.21615	26.314	0.0235763	-0.00643058
2.20068	1.21474	26.414	0.0238638	-0.00650348
2.20923	1.21561	26.514	0.0239533	-0.0065135
2.21768	1.21707	26.614	0.0241691	-0.00657295
2.22578	1.21638	26.714	0.0242051	-0.00657791
2.23384	1.21684	26.814	0.0243882	-0.00660036
2.24238	1.21572	26.914	0.0245306	-0.00666325
2.25122	1.21733	27.014	0.024608	-0.006651
2.25952	1.21632	27.114	0.0248469	-0.00678656
2.26763	1.21933	27.214	0.0249869	-0.00677481
2.27573	1.21617	27.314	0.0251421	-0.00680737
2.28442	1.2171	27.414	0.0252179	-0.00686846
2.29292	1.21436	27.514	0.0253148	-0.00683105
2.30093	1.21865	27.614	0.0255724	-0.00685013
2.30903	1.21546	27.714	0.0256701	-0.00689844
2.31748	1.21424	27.814	0.0258554	-0.00687039
2.32603	1.21829	27.914	0.026018	-0.00686252
2.33452	1.21508	28.014	0.0262202	-0.00691009
2.34258	1.21339	28.114	0.0262477	-0.00693837
2.35098	1.21458	28.214	0.0263379	-0.00698928
2.35928	1.21464	28.314	0.0266334	-0.00698494
2.36777	1.21411	28.414	0.0266944	-0.00704826
2.37607	1.21232	28.514	0.0268246	-0.00706311
2.38433	1.21533	28.614	0.0269218	-0.00718194
2.39243	1.21529	28.714	0.0271625	-0.00718203
2.40073	1.21151	28.814	0.0272616	-0.00722168
2.40938	1.2097	28.914	0.0273596	-0.0072684
2.41802	1.21314	29.014	0.0276725	-0.00740304
2.42622	1.21085	29.114	0.0278033	-0.00732539
2.43423	1.21045	29.214	0.0280088	-0.00741001
2.44263	1.21338	29.314	0.0281026	-0.00738769
2.45132	1.2087	29.414	0.0283379	-0.00739869
2.45942	1.21074	29.514	0.0283859	-0.00745369
2.46743	1.20721	29.614	0.0286044	-0.0074655
2.47554	1.20405	29.714	0.0288453	-0.00752213
2.48428	1.20546	29.814	0.0288453	-0.00752213
2.49282	1.20756	29.914	0.0291088	-0.00766009
2.50088	1.2051	30.014	0.0292079	-0.00773279
2.50898	1.20608	30.114	0.0295223	-0.00771997
2.51738	1.20321	30.214	0.0296193	-0.00775642
2.52598	1.20254	30.314	0.0297254	-0.00776988
2.53438	1.19949	30.414	0.0299588	-0.00780136
2.54233	1.20213	30.514	0.0301486	-0.0078289
2.55078	1.20054	30.614	0.0302987	-0.00786751
2.55908	1.19968	30.714	0.0303935	-0.00786325
2.56768	1.19855	30.814	0.0306913	-0.00795745
2.57612	1.19773	30.914	0.030789	-0.00799561
2.58447	1.19617	31.014	0.0308566	-0.00795208
2.59268	1.19688	31.114	0.0310367	-0.00796629
2.60103	1.19684	31.214	0.0312522	-0.008168
2.60962	1.19497	31.314	0.0314595	-0.00819334
2.61812	1.19487	31.414	0.0315885	-0.00819233
2.62617	1.19326	31.514	0.0319565	-0.00820046
2.63423	1.19234	31.614	0.0320444	-0.00823355
2.64268	1.18975	31.714	0.0321292	-0.00827157
2.65146	1.18585	31.814	0.0323609	-0.00829147
2.65967	1.18688	31.914	0.0324458	-0.00830806
2.66772	1.18309	32.014	0.0327468	-0.00840931
2.67573	1.18382	32.114	0.0328519	-0.00841801
2.68438	1.18181	32.214	0.0330494	-0.00841735
2.69287	1.17942	32.314	0.0333028	-0.00844389
2.70098	1.17616	32.414	0.0334206	-0.00848655
2.70908	1.1705	32.514	0.0338227	-0.00850902
2.71387	-0.126542	32.573	0.0338769	-0.00855782