File: Raw_Data./DSC/Crystallisation samples/Nozzle 1 mm/0 Degrees/LH005_0D_N1/Test 1.csv
Temperature,Heat Flow
30.07,8.6987
30.08,8.7848
30.14,9.2722
30.24,9.6551
30.37,9.7115
30.5,9.581
30.63,9.4532
30.76,9.4227
30.9,9.5035
31.03,9.659
31.16,9.8539
31.3,10.0639
31.43,10.2709
31.56,10.4629
31.7,10.6367
31.83,10.7864
31.96,10.9152
32.09,11.0282
32.23,11.1277
32.36,11.2138
32.49,11.2885
32.63,11.3482
32.76,11.3969
32.89,11.4411
33.02,11.4798
33.16,11.5144
33.29,11.5444
33.42,11.5655
33.56,11.5823
33.69,11.5986
33.83,11.6154
33.95,11.6315
34.09,11.6451
34.22,11.6521
34.36,11.657
34.49,11.6646
34.62,11.6731
34.74,11.6816
34.89,11.6875
35.02,11.6895
35.15,11.692
35.28,11.6981
35.42,11.7057
35.55,11.7135
35.68,11.7177
35.82,11.7188
35.95,11.7206
36.08,11.7256
36.21,11.7308
36.35,11.7359
36.48,11.7361
36.61,11.7368
36.74,11.7406
36.88,11.7457
37.02,11.7522
37.15,11.7577
37.28,11.76
37.41,11.7622
37.55,11.767
37.68,11.7731
37.81,11.7801
37.95,11.7841
38.08,11.7852
38.22,11.7873
38.34,11.7918
38.48,11.7978
38.61,11.8052
38.74,11.8092
38.88,11.8101
39.01,11.805
39.15,11.7969
39.28,11.7955
39.41,11.7991
39.54,11.8009
39.68,11.8054
39.81,11.8137
39.94,11.8236
40.08,11.8339
40.21,11.8419
40.34,11.8448
40.48,11.8481
40.61,11.8536
40.74,11.8604
40.87,11.8696
41.01,11.8742
41.14,11.8754
41.27,11.8778
41.4,11.8831
41.54,11.8891
41.68,11.8945
41.8,11.8947
41.94,11.8933
42.08,11.8948
42.2,11.8987
42.34,11.9043
42.47,11.9084
42.6,11.9092
42.73,11.9095
42.87,11.912
43,11.9148
43.14,11.9195
43.27,11.9198
43.4,11.9191
43.53,11.92
43.67,11.9221
43.8,11.9255
43.93,11.927
44.07,11.9257
44.2,11.9242
44.33,11.9249
44.46,11.9281
44.59,11.9346
44.73,11.9374
44.86,11.9356
45,11.9345
45.13,11.9351
45.27,11.9379
45.4,11.9411
45.53,11.9399
45.67,11.9381
45.8,11.9386
45.93,11.9412
46.06,11.9457
46.19,11.9462
46.33,11.9443
46.46,11.9427
46.59,11.9446
46.73,11.9481
46.86,11.9526
46.99,11.9526
47.13,11.951
47.26,11.9511
47.4,11.9545
47.53,11.9598
47.66,11.9599
47.8,11.9591
47.93,11.9617
48.06,11.9685
48.19,11.9831
48.33,11.9973
48.46,12.0025
48.6,12.0024
48.73,12.0015
48.87,12.0022
49,12.0038
49.13,12.0019
49.26,11.9979
49.39,11.9968
49.52,11.9995
49.66,12.0039
49.8,12.0079
49.93,12.0097
50.06,12.0123
50.2,12.029
50.33,12.0578
50.46,12.0784
50.59,12.082
50.73,12.0776
50.86,12.0697
50.99,12.0633
51.13,12.0605
51.26,12.0583
51.39,12.0534
51.52,12.0508
51.65,12.0511
51.79,12.0537
51.92,12.0544
52.06,12.051
52.19,12.0475
52.33,12.0467
52.45,12.049
52.59,12.0546
52.72,12.058
52.85,12.0592
52.99,12.0613
53.12,12.0662
53.25,12.0742
53.39,12.0828
53.52,12.0869
53.65,12.0926
53.79,12.1031
53.92,12.1153
54.05,12.1283
54.19,12.1356
54.32,12.1407
54.45,12.1471
54.59,12.1545
54.72,12.1619
54.85,12.1645
54.99,12.165
55.13,12.1666
55.24,12.1716
55.38,12.1809
55.52,12.1902
55.65,12.1961
55.78,12.2019
55.92,12.2137
56.05,12.2294
56.18,12.2466
56.32,12.263
56.45,12.2826
56.59,12.3086
56.72,12.3421
56.84,12.3798
56.98,12.4102
57.12,12.4329
57.25,12.4536
57.38,12.4709
57.51,12.4853
57.65,12.4975
57.78,12.5104
57.92,12.5302
58.05,12.5613
58.18,12.5919
58.31,12.6195
58.45,12.6446
58.58,12.676
58.71,12.7188
58.84,12.7717
58.98,12.8334
59.11,12.8941
59.25,12.9534
59.38,13.0113
59.51,13.0637
59.65,13.1132
59.78,13.1534
59.91,13.1874
60.05,13.2193
60.18,13.2508
60.31,13.2851
60.45,13.3161
60.58,13.3433
60.71,13.356
60.84,13.3516
60.98,13.3346
61.11,13.3043
61.25,13.265
61.38,13.2267
61.51,13.1908
61.65,13.1562
61.78,13.124
61.91,13.0898
62.04,13.0559
62.18,13.0272
62.31,13.0044
62.44,12.9858
62.58,12.9647
62.71,12.9452
62.84,12.9319
62.98,12.9237
63.1,12.9227
63.24,12.9183
63.38,12.9148
63.51,12.9174
63.64,12.9293
63.77,12.9401
63.91,12.936
64.04,12.9202
64.17,12.9035
64.32,12.8888
64.44,12.8784
64.58,12.8709
64.71,12.8594
64.84,12.8476
64.98,12.8413
65.11,12.8434
65.24,12.8475
65.38,12.8466
65.51,12.8454
65.64,12.8445
65.78,12.8436
65.91,12.8499
66.04,12.867
66.18,12.9016
66.3,12.9487
66.44,12.9742
66.58,12.9709
66.71,12.9471
66.84,12.9173
66.97,12.8868
67.11,12.8605
67.25,12.8405
67.38,12.8195
67.51,12.7984
67.64,12.7815
67.78,12.7678
67.91,12.7601
68.05,12.7495
68.17,12.7377
68.31,12.7305
68.45,12.727
68.58,12.7247
68.72,12.7209
68.84,12.7144
68.98,12.709
69.11,12.7021
69.24,12.6892
69.38,12.6698
69.51,12.6482
69.64,12.6286
69.78,12.6167
69.91,12.6147
70.04,12.6142
70.18,12.6096
70.31,12.6091
70.44,12.6166
70.58,12.626
70.71,12.6323
70.84,12.6394
70.98,12.6499
71.1,12.6647
71.25,12.6792
71.38,12.6838
71.51,12.6798
71.64,12.6826
71.78,12.6978
71.9,12.7237
72.04,12.7474
72.17,12.7556
72.31,12.7593
72.44,12.7654
72.58,12.7783
72.71,12.792
72.84,12.8013
72.98,12.8044
73.11,12.8056
73.24,12.807
73.38,12.8077
73.51,12.8037
73.64,12.7997
73.78,12.799
73.91,12.8004
74.05,12.8029
74.17,12.7996
74.31,12.7972
74.44,12.7966
74.58,12.7975
74.72,12.7999
74.84,12.7976
74.98,12.791
75.11,12.7871
75.25,12.7882
75.38,12.7919
75.52,12.7899
75.64,12.7875
75.78,12.7894
75.91,12.7933
76.05,12.7961
76.17,12.7928
76.31,12.7895
76.45,12.7891
76.58,12.7921
76.72,12.7943
76.84,12.7917
76.98,12.7876
77.12,12.7843
77.25,12.7836
77.38,12.7836
77.51,12.78
77.65,12.7774
77.78,12.7965
77.91,12.8357
78.05,12.8669
78.18,12.9231
78.32,12.9841
78.45,13.0097
78.58,13.0075
78.71,12.9932
78.84,12.9665
78.98,12.9354
79.11,12.9055
79.25,12.8693
79.38,12.8358
79.51,12.8182
79.64,12.8099
79.78,12.8017
79.9,12.786
80.04,12.7667
80.17,12.751
80.31,12.7433
80.45,12.7401
80.58,12.7365
80.7,12.7371
80.84,12.7386
80.97,12.7376
81.1,12.736
81.24,12.7339
81.37,12.7285
81.5,12.7216
81.64,12.7207
81.77,12.7182
81.9,12.7149
82.04,12.7166
82.17,12.7201
82.3,12.7223
82.43,12.7189
82.57,12.7109
82.7,12.7058
82.84,12.7078
82.97,12.7127
83.1,12.7143
83.24,12.7192
83.37,12.7224
83.5,12.7088
83.63,12.694
83.77,12.6847
83.89,12.68
84.03,12.6797
84.17,12.6831
84.3,12.6847
84.43,12.6879
84.56,12.6865
84.7,12.6653
84.83,12.6227
84.96,12.5789
85.09,12.5527
85.23,12.5464
85.36,12.5475
85.49,12.5447
85.63,12.5402
85.76,12.5372
85.89,12.5335
86.03,12.5363
86.16,12.5582
86.29,12.5838
86.42,12.6
86.56,12.5993
86.69,12.5861
86.83,12.5661
86.96,12.5474
87.09,12.5387
87.22,12.5311
87.35,12.5213
87.49,12.5102
87.62,12.4853
87.75,12.467
87.89,12.4579
88.02,12.446
88.15,12.436
88.28,12.4297
88.42,12.4213
88.55,12.4102
88.68,12.4036
88.82,12.3968
88.95,12.3887
89.09,12.3848
89.22,12.3809
89.34,12.3801
89.48,12.3821
89.61,12.3789
89.75,12.3757
89.88,12.3788
90.01,12.3813
90.14,12.3796
90.28,12.3801
90.41,12.3809
90.55,12.3818
90.67,12.426
90.81,12.4924
90.95,12.5329
91.08,12.5508
91.21,12.5503
91.34,12.5356
91.48,12.5224
91.61,12.5135
91.75,12.4993
91.88,12.4805
92.02,12.4572
92.14,12.4278
92.28,12.399
92.41,12.3784
92.55,12.3636
92.68,12.3567
92.81,12.3511
92.95,12.3581
93.08,12.3686
93.21,12.3672
93.34,12.3508
93.48,12.3351
93.61,12.3244
93.75,12.3134
93.88,12.302
94.01,12.2942
94.14,12.283
94.28,12.2675
94.41,12.2451
94.54,12.2134
94.68,12.1815
94.82,12.1524
94.95,12.122
95.08,12.0907
95.21,12.0625
95.34,12.0337
95.48,12.0036
95.61,11.9776
95.75,11.9533
95.88,11.9274
96.01,11.9045
96.14,11.8839
96.28,11.8623
96.41,11.8439
96.54,11.8273
96.67,11.8076
96.8,11.7895
96.94,11.7732
97.08,11.7543
97.21,11.7378
97.34,11.7222
97.48,11.7045
97.6,11.687
97.74,11.6719
97.87,11.6544
98,11.6386
98.14,11.6242
98.28,11.6088
98.4,11.5927
98.54,11.5794
98.67,11.5637
98.8,11.5507
98.93,11.539
99.06,11.5255
99.2,11.5115
99.34,11.4996
99.46,11.4859
99.59,11.4739
99.73,11.4634
99.86,11.4487
100,11.4344
100.13,11.4269
100.26,11.4165
100.4,11.4047
100.53,11.3961
100.67,11.3862
100.8,11.3753
100.93,11.3669
101.07,11.3565
101.2,11.3464
101.33,11.3421
101.46,11.3386
101.59,11.3327
101.73,11.3267
101.86,11.3165
102,11.3032
102.13,11.2947
102.26,11.285
102.39,11.2736
102.53,11.2661
102.66,11.2592
102.79,11.2516
102.93,11.2472
103.06,11.2403
103.19,11.2332
103.33,11.2298
103.46,11.2262
103.6,11.22
103.72,11.2163
103.85,11.2121
103.99,11.208
104.12,11.2085
104.26,11.2083
104.39,11.2049
104.53,11.2052
104.65,11.2064
104.79,11.2052
104.92,11.2058
105.05,11.2069
105.19,11.207
105.33,11.2121
105.45,11.2182
105.59,11.2217
105.73,11.2257
105.85,11.2308
105.99,11.2348
106.12,11.2416
106.25,11.248
106.39,11.2532
106.52,11.2611
106.65,11.2701
106.78,11.2762
106.92,11.2843
107.05,11.2945
107.18,11.3029
107.32,11.3116
107.45,11.3226
107.58,11.3322
107.71,11.3433
107.85,11.3562
107.98,11.367
108.11,11.3787
108.25,11.392
108.38,11.4021
108.51,11.4149
108.65,11.4287
108.78,11.4407
108.91,11.4532
109.05,11.4677
109.18,11.4791
109.31,11.4951
109.45,11.5102
109.58,11.5228
109.71,11.5378
109.84,11.5539
109.98,11.5697
110.11,11.5867
110.24,11.6021
110.38,11.6158
110.51,11.6295
110.64,11.6445
110.78,11.6574
110.91,11.6734
111.05,11.6918
111.18,11.7054
111.31,11.7211
111.44,11.7369
111.58,11.7517
111.71,11.7667
111.84,11.7826
111.98,11.7963
112.11,11.8122
112.22,11.8283
112.38,11.8425
112.51,11.8571
112.64,11.8726
112.78,11.887
112.91,11.9021
113.04,11.9163
113.17,11.9303
113.31,11.946
113.44,11.9615
113.58,11.9731
113.71,11.9875
113.84,12
113.98,12.0129
114.1,12.0281
114.25,12.0437
114.38,12.0546
114.5,12.0677
114.64,12.0825
114.78,12.0937
114.9,12.1054
115.03,12.119
115.17,12.1299
115.3,12.1443
115.44,12.1569
115.57,12.1668
115.7,12.1793
115.84,12.1913
115.97,12.202
116.1,12.2152
116.24,12.2267
116.37,12.2372
116.5,12.2485
116.64,12.2602
116.77,12.2717
116.9,12.2839
117.04,12.295
117.17,12.3031
117.3,12.3156
117.43,12.3265
117.57,12.3341
117.7,12.3446
117.83,12.3543
117.97,12.3627
118.1,12.3719
118.23,12.3803
118.37,12.3879
118.5,12.3982
118.63,12.4065
118.77,12.4149
118.9,12.426
119.03,12.4333
119.17,12.4388
119.3,12.4472
119.43,12.4552
119.57,12.4605
119.7,12.4671
119.83,12.4733
119.97,12.4817
120.1,12.492
120.23,12.4997
120.36,12.5049
120.5,12.5133
120.63,12.52
120.76,12.5252
120.9,12.5331
121.03,12.5409
121.17,12.5477
121.3,12.5563
121.43,12.5623
121.57,12.57
121.7,12.579
121.83,12.583
121.96,12.5915
122.1,12.6035
122.23,12.613
122.37,12.6213
122.5,12.6314
122.63,12.6425
122.77,12.6572
122.9,12.672
123.03,12.6833
123.17,12.6947
123.3,12.7062
123.43,12.7126
123.56,12.7201
123.69,12.7293
123.83,12.7355
123.96,12.744
124.09,12.7501
124.23,12.755
124.36,12.7641
124.5,12.7717
124.63,12.7744
124.76,12.7793
124.89,12.785
125.03,12.7885
125.16,12.7944
125.29,12.7999
125.43,12.8034
125.56,12.8098
125.69,12.8115
125.83,12.8112
125.96,12.8168
126.09,12.8219
126.22,12.8253
126.35,12.8305
126.49,12.8343
126.63,12.8388
126.75,12.8461
126.89,12.8496
127.02,12.8521
127.15,12.8576
127.29,12.8595
127.43,12.8615
127.55,12.8683
127.69,12.8718
127.82,12.876
127.96,12.8809
128.1,12.8826
128.22,12.8855
128.36,12.8901
128.49,12.8919
128.63,12.8962
128.76,12.9013
128.89,12.9028
129.02,12.9074
129.16,12.9131
129.29,12.9148
129.43,12.9184
129.56,12.9219
129.69,12.9241
129.82,12.9299
129.96,12.9331
130.09,12.932
130.22,12.9343
130.36,12.9368
130.49,12.9377
130.62,12.9466
130.76,12.9554
130.89,12.9645
131.02,12.9739
131.16,12.9772
131.29,12.982
131.42,12.9901
131.56,12.9938
131.69,12.9971
131.82,13.0034
131.96,13.0081
132.09,13.0123
132.22,13.018
132.35,13.0218
132.49,13.0256
132.63,13.029
132.75,13.0375
132.89,13.0417
133.03,13.0421
133.16,13.0405
133.29,13.0442
133.42,13.0527
133.55,13.0575
133.69,13.064
133.82,13.0682
133.95,13.0701
134.09,13.0761
134.22,13.0806
134.35,13.0831
134.48,13.088
134.62,13.0922
134.75,13.0959
134.89,13.1025
135.02,13.1066
135.15,13.1104
135.29,13.1168
135.42,13.1213
135.55,13.1271
135.69,13.1365
135.82,13.1415
135.95,13.1469
136.09,13.1552
136.22,13.1606
136.35,13.1662
136.49,13.1709
136.62,13.1758
136.75,13.183
136.88,13.1904
137.02,13.1934
137.15,13.2001
137.28,13.2075
137.42,13.2122
137.55,13.2192
137.69,13.224
137.82,13.2285
137.95,13.2372
138.09,13.2422
138.22,13.2472
138.36,13.2568
138.49,13.2653
138.62,13.2711
138.75,13.2787
138.89,13.2851
139.02,13.2935
139.15,13.3023
139.29,13.31
139.43,13.32
139.56,13.3317
139.69,13.3382
139.82,13.346
139.96,13.3577
140.09,13.3676
140.22,13.3788
140.36,13.3877
140.49,13.3962
140.62,13.4083
140.76,13.4172
140.89,13.4259
141.03,13.4383
141.15,13.4483
141.29,13.4603
141.43,13.4683
141.56,13.4806
141.69,13.4931
141.82,13.5052
141.96,13.5158
142.09,13.5281
142.22,13.5416
142.36,13.5542
142.49,13.5682
142.62,13.5817
142.75,13.5979
142.89,13.6123
143.02,13.6276
143.15,13.6438
143.29,13.6617
143.42,13.6805
143.55,13.697
143.68,13.7158
143.82,13.7343
143.94,13.7541
144.08,13.7721
144.22,13.8038
144.35,13.8505
144.48,13.892
144.61,13.9224
144.75,13.9472
144.88,13.97
145.02,13.9947
145.15,14.024
145.28,14.0548
145.41,14.091
145.55,14.1242
145.68,14.1592
145.81,14.1955
145.94,14.2364
146.08,14.2775
146.21,14.3173
146.35,14.3586
146.47,14.4002
146.61,14.4475
146.74,14.4892
146.88,14.5386
147,14.5913
147.14,14.6487
147.27,14.7019
147.4,14.7525
147.54,14.8086
147.67,14.8687
147.81,14.9305
147.94,14.9926
148.07,15.0597
148.2,15.1226
148.34,15.1841
148.47,15.2394
148.6,15.2924
148.74,15.3436
148.87,15.3913
149,15.4374
149.13,15.4828
149.27,15.5291
149.4,15.5694
149.53,15.608
149.67,15.6427
149.8,15.6764
149.94,15.7031
150.06,15.7265
150.2,15.7452
150.33,15.7623
150.47,15.7739
150.6,15.7792
150.73,15.7813
150.86,15.7752
151,15.7652
151.13,15.7539
151.26,15.7508
151.4,15.7485
151.53,15.7473
151.66,15.742
151.8,15.7403
151.93,15.7501
152.06,15.7687
152.19,15.7941
152.33,15.8215
152.46,15.8524
152.59,15.8786
152.72,15.9046
152.86,15.9269
152.99,15.9498
153.13,15.971
153.25,15.9897
153.39,16.0065
153.52,16.0202
153.65,16.0315
153.79,16.0378
153.92,16.0445
154.05,16.0463
154.19,16.0496
154.32,16.0459
154.45,16.0418
154.59,16.0331
154.72,16.0168
154.85,15.9904
154.98,15.9594
155.12,15.9242
155.25,15.8781
155.38,15.822
155.51,15.7541
155.65,15.6807
155.78,15.5961
155.92,15.5026
156.05,15.4007
156.18,15.2915
156.32,15.1762
156.45,15.0524
156.58,14.922
156.71,14.79
156.85,14.6564
156.98,14.5194
157.12,14.3841
157.25,14.2497
157.38,14.1225
157.52,13.9977
157.65,13.8822
157.79,13.7764
157.92,13.68
158.05,13.5924
158.18,13.5179
158.32,13.4571
158.45,13.402
158.59,13.3539
158.72,13.3095
158.85,13.2747
158.98,13.2409
159.12,13.2124
159.25,13.1823
159.39,13.1536
159.52,13.13
159.65,13.105
159.78,13.0833
159.92,13.0682
160.05,13.0615
160.18,13.0528
160.32,13.0463
160.44,13.0396
160.58,13.036
160.71,13.0312
160.85,13.027
160.98,13.0248
161.12,13.025
161.25,13.0238
161.38,13.02
161.52,13.0179
161.65,13.0181
161.78,13.02
161.92,13.0171
162.05,13.016
162.18,13.0157
162.32,13.0179
162.45,13.0159
162.58,13.0151
162.71,13.0168
162.85,13.0229
162.98,13.0263
163.12,13.0252
163.25,13.0223
163.38,13.0193
163.52,13.0185
163.65,13.018
163.78,13.0217
163.92,13.0229
164.05,13.0242
164.18,13.0239
164.32,13.0232
164.45,13.0228
164.58,13.023
164.72,13.0231
164.85,13.0239
164.99,13.0236
165.12,13.0227
165.25,13.0244
165.38,13.0256
165.51,13.0269
165.65,13.0261
165.78,13.0268
165.92,13.0271
166.05,13.0291
166.18,13.0297
166.31,13.0311
166.44,13.0317
166.58,13.0312
166.71,13.0299
166.85,13.0277
166.98,13.0283
167.11,13.0261
167.25,13.0282
167.38,13.0274
167.51,13.0271
167.65,13.0237
167.78,13.0223
167.91,13.0185
168.04,13.0193
168.18,13.0205
168.31,13.0209
168.44,13.0214
168.58,13.0219
168.71,13.0223
168.84,13.0218
168.97,13.0244
169.11,13.0239
169.25,13.0254
169.38,13.0256
169.51,13.0287
169.64,13.0291
169.78,13.0297
169.91,13.0276
170.04,13.0253
170.17,13.0257
170.31,13.0268
170.44,13.0287
170.57,13.0284
170.7,13.0301
170.84,13.0291
170.97,13.0295
171.1,13.0288
171.24,13.0322
171.38,13.0325
171.5,13.0338
171.64,13.0328
171.77,13.0343
171.9,13.0347
172.03,13.0362
172.17,13.0383
172.3,13.0401
172.43,13.0406
172.57,13.038
172.7,13.0377
172.83,13.0379
172.97,13.0385
173.1,13.0379
173.23,13.0402
173.37,13.0399
173.5,13.0417
173.63,13.0421
173.76,13.0432
173.9,13.0439
174.03,13.046
174.16,13.049
174.3,13.05
174.43,13.0493
174.56,13.0466
174.69,13.0484
174.83,13.0476
174.97,13.0485
175.1,13.0471
175.23,13.0487
175.36,13.0474
175.49,13.0501
175.63,13.0524
175.76,13.0544
175.9,13.0537
176.03,13.0562
176.16,13.057
176.29,13.0563
176.43,13.0567
176.56,13.0564
176.69,13.0581
176.83,13.0588
176.96,13.0608
177.09,13.0594
177.22,13.0604
177.36,13.0592
177.49,13.0598
177.63,13.0586
177.76,13.0586
177.89,13.0593
178.03,13.061
178.15,13.0611
178.29,13.0623
178.43,13.0645
178.56,13.0642
178.69,13.0652
178.82,13.0659
178.96,13.0667
179.09,13.066
179.22,13.0674
179.35,13.0662
179.49,13.0679
179.62,13.0666
179.75,13.0661
179.89,13.0657
180.02,13.0669
180.15,13.0684
180.29,13.0694
180.42,13.0684
180.55,13.0664
180.68,13.0662
180.82,13.0642
180.95,13.0644
181.08,13.0626
181.21,13.0642
181.35,13.0631
181.48,13.0654
181.62,13.065
181.75,13.0655
181.88,13.0664
182.02,13.0711
182.15,13.0721
182.28,13.0722
182.41,13.0725
182.54,13.0756
182.68,13.0796
182.81,13.0848
182.94,13.0919
183.08,13.0974
183.21,13.0995
183.34,13.0986
183.47,13.1002
183.61,13.1012
183.74,13.1034
183.88,13.1018
184.01,13.1017
184.14,13.1
184.28,13.0991
184.41,13.0965
184.55,13.0952
184.68,13.092
184.81,13.0898
184.94,13.0885
185.08,13.0866
185.21,13.0857
185.35,13.0817
185.47,13.0822
185.61,13.0811
185.75,13.0808
185.88,13.0797
186.01,13.0817
186.15,13.0816
186.28,13.0827
186.41,13.0827
186.55,13.0835
186.68,13.0802
186.81,13.0802
186.94,13.082
187.08,13.0861
187.21,13.0858
187.34,13.0832
187.48,13.0847
187.61,13.0845
187.75,13.0832
187.88,13.0827
188.01,13.0848
188.14,13.0869
188.28,13.0908
188.41,13.0888
188.54,13.0891
188.68,13.0893
188.81,13.0905
188.94,13.0883
189.08,13.0899
189.21,13.091
189.34,13.0933
189.47,13.0945
189.61,13.0958
189.74,13.0962
189.88,13.0977
190.01,13.0973
190.14,13.0955
190.28,13.0952
190.41,13.0963
190.54,13.0994
190.68,13.101
190.8,13.1026
190.94,13.1039
191.08,13.1039
191.2,13.1022
191.34,13.1026
191.47,13.1011
191.6,13.1027
191.74,13.104
191.87,13.1066
192,13.106
192.14,13.1048
192.27,13.1044
192.4,13.1101
192.54,13.1168
192.67,13.1206
192.8,13.1247
192.94,13.1294
193.07,13.1338
193.2,13.1303
193.33,13.1284
193.47,13.1263
193.6,13.1249
193.74,13.123
193.87,13.1259
194,13.129
194.14,13.1357
194.27,13.1408
194.4,13.1458
194.53,13.1456
194.67,13.1455
194.8,13.1459
194.94,13.1464
195.07,13.1467
195.2,13.1483
195.34,13.1512
195.47,13.1507
195.6,13.1502
195.74,13.151
195.88,13.1529
196,13.1551
196.13,13.161
196.27,13.1674
196.41,13.1746
196.54,13.1759
196.67,13.1774
196.8,13.1794
196.94,13.1833
197.07,13.1821
197.2,13.181
197.34,13.1797
197.47,13.1798
197.6,13.1801
197.74,13.1823
197.87,13.1837
198,13.1839
198.14,13.1841
198.27,13.1843
198.4,13.185
198.53,13.186
198.67,13.1851
198.8,13.1869
198.94,13.1882
199.07,13.1885
199.2,13.1889
199.33,13.1873
199.47,13.1878
199.6,13.1881
199.73,13.188
199.87,13.1855
200,13.188
200.13,13.1868
200.27,13.1859
200.4,13.1815
200.53,13.1816
200.67,13.1823
200.8,13.1847
200.94,13.1848
201.07,13.1854
201.2,13.1862
201.33,13.1885
201.47,13.1869
201.6,13.1858
201.73,13.1851
201.87,13.1853
202,13.1861
202.13,13.188
202.27,13.1892
202.4,13.1875
202.53,13.1854
202.66,13.1828
202.8,13.1837
202.93,13.1825
203.06,13.1829
203.19,13.1814
203.33,13.1802
203.47,13.1796
203.6,13.182
203.73,13.1837
203.87,13.1867
204,13.1857
204.13,13.1919
204.27,13.1936
204.4,13.2025
204.53,13.2098
204.67,13.2155
204.8,13.2191
204.94,13.2209
205.07,13.2205
205.2,13.2171
205.33,13.2131
205.47,13.2114
205.6,13.2085
205.73,13.206
205.87,13.2035
206,13.2037
206.13,13.2022
206.26,13.2017
206.4,13.2006
206.53,13.2003
206.66,13.2012
206.8,13.1998
206.93,13.1985
207.06,13.1998
207.19,13.2006
207.33,13.1975
207.46,13.1943
207.6,13.1951
207.72,13.1961
207.86,13.1955
207.99,13.1935
208.13,13.1907
208.26,13.1927
208.39,13.1944
208.53,13.1962
208.65,13.1989
208.79,13.2004
208.92,13.1988
209.05,13.1954
209.19,13.1969
209.32,13.1985
209.45,13.1971
209.59,13.196
209.72,13.1981
209.85,13.2025
209.98,13.2034
210.12,13.2035
210.25,13.2035
210.38,13.2046
210.52,13.2061
210.65,13.208
210.78,13.2096
210.92,13.2111
211.05,13.2135
211.18,13.212
211.32,13.2089
211.44,13.209
211.58,13.2098
211.71,13.21
211.85,13.2103
211.97,13.2097
212.11,13.2014
212.24,13.1672
212.38,13.1525
212.51,13.1572
212.64,13.1688
212.78,13.1793
212.91,13.1854
213.04,13.1965
213.18,13.209
213.31,13.219
213.44,13.2243
213.58,13.2287
213.71,13.233
213.84,13.2333
213.97,13.2321
214.11,13.2341
214.24,13.2355
214.38,13.2375
214.5,13.2388
214.64,13.2388
214.77,13.2389
214.91,13.2398
215.04,13.2392
215.17,13.2374
215.3,13.236
215.43,13.2351
215.58,13.234
215.7,13.2356
215.84,13.2365
215.97,13.2363
216.1,13.2361
216.24,13.2379
216.37,13.2403
216.5,13.2404
216.63,13.2411
216.77,13.2413
216.9,13.24
217.03,13.2415
217.17,13.2421
217.3,13.2415
217.43,13.2419
217.56,13.2434
217.7,13.2459
217.83,13.2467
217.96,13.2503
218.1,13.2511
218.23,13.2472
218.36,13.2458
218.5,13.2454
218.63,13.2484
218.76,13.2479
218.9,13.2453
219.03,13.2456
219.16,13.2472
219.3,13.247
219.43,13.2448
219.56,13.2469
219.69,13.2516
219.83,13.2678
219.85,13.2699