File: Raw_Data./Tensile Nozzle 0.4 mm/45 Degrees/LH0.05_45D_N0.4/4/Test Run 1 02-21-20 12 28 42 PM/DAQ- Crosshead, … - (Timed).txt
File Path: C:\Users\MTS 300\Desktop\robin\eprouvette 45 lh005\test 4\Test Run 1 02-21-20 12 28 42 PM\DAQ- Crosshead, … - (Timed).txt
Test: Tensile test LEI 12
Test Run: Test Run 1
Date: 21/02/2020 12:19:54

Crosshead 	Load 	Time 	Strain 1 	Strain 2
mm	kN	sec	mm/mm	mm/mm
0.00385742	0.00432309	0.114	3.30251e-05	-2.82306e-05
0.0101563	0.0110317	0.214	3.79818e-05	-6.24569e-05
0.0177246	0.0164261	0.314	8.74095e-05	-4.6524e-05
0.0259277	0.0271342	0.414	0.000134249	-5.75366e-05
0.0340332	0.0355223	0.514	0.000209525	-5.01027e-05
0.042627	0.0431417	0.614	0.000248648	-7.25751e-05
0.0516602	0.0506012	0.714	0.000347512	-0.000126862
0.0608887	0.0634641	0.814	0.000414327	-0.000167659
0.0692383	0.0683545	0.914	0.00045087	-0.000169425
0.0777832	0.0772039	1.014	0.000596093	-0.000245115
0.0868164	0.0856342	1.114	0.000607602	-0.000154985
0.0959473	0.0976122	1.214	0.000711843	-0.000213084
0.104443	0.10267	1.314	0.000769049	-0.000164457
0.113037	0.11194	1.414	0.000917133	-0.000164457
0.121924	0.120581	1.514	0.000946506	-0.000232621
0.130859	0.129356	1.614	0.00100882	-0.00028713
0.139697	0.135461	1.714	0.00112141	-0.00033889
0.147998	0.148291	1.814	0.0012305	-0.000401712
0.156641	0.156363	1.914	0.00133544	-0.000399223
0.165186	0.162477	2.014	0.00136396	-0.000402365
0.173877	0.16912	2.114	0.00153388	-0.000438616
0.182178	0.17921	2.214	0.00157783	-0.000479326
0.190723	0.186751	2.314	0.00164032	-0.000567741
0.198877	0.197202	2.414	0.00173467	-0.000597259
0.20752	0.204868	2.514	0.00182359	-0.000553812
0.216113	0.212646	2.614	0.00190263	-0.000620282
0.224805	0.220869	2.714	0.00194263	-0.000648063
0.232861	0.226426	2.814	0.00206614	-0.00064409
0.241016	0.235047	2.914	0.00210704	-0.000665379
0.249463	0.243744	3.014	0.00210135	-0.000708715
0.258398	0.251913	3.114	0.00222279	-0.000699487
0.266406	0.25694	3.214	0.00226326	-0.000768173
0.274658	0.265883	3.314	0.00242208	-0.000723446
0.283008	0.273141	3.414	0.00242208	-0.000723446
0.292139	0.281611	3.514	0.00256157	-0.000770583
0.300488	0.290835	3.614	0.00265512	-0.000866165
0.308594	0.296295	3.714	0.00272951	-0.000869989
0.316699	0.303868	3.814	0.00285863	-0.000913021
0.325488	0.310141	3.914	0.00289818	-0.000914851
0.333936	0.318288	4.014	0.00303875	-0.000992123
0.342041	0.326416	4.114	0.00309114	-0.00100407
0.350146	0.334507	4.214	0.00317886	-0.00104114
0.358691	0.339451	4.314	0.00328059	-0.0010599
0.36709	0.34694	4.414	0.00331849	-0.00114807
0.375684	0.355043	4.514	0.00340362	-0.00116116
0.383936	0.360336	4.614	0.00345303	-0.00119283
0.39248	0.369145	4.714	0.00357419	-0.00123374
0.400537	0.373238	4.814	0.00363088	-0.00124402
0.408936	0.381718	4.914	0.00372721	-0.00130214
0.417383	0.388542	5.014	0.00377504	-0.00134347
0.42583	0.397272	5.114	0.00387152	-0.0013363
0.433887	0.403168	5.214	0.00397364	-0.00133927
0.442188	0.410384	5.314	0.00402108	-0.00142229
0.450879	0.417103	5.414	0.00416085	-0.00131625
0.459863	0.424336	5.514	0.00421509	-0.00137451
0.467822	0.432172	5.614	0.00429641	-0.00135927
0.475928	0.435768	5.714	0.00435966	-0.00143568
0.484229	0.442996	5.814	0.00446591	-0.001469
0.493164	0.448359	5.914	0.00453592	-0.00148952
0.501172	0.456975	6.014	0.00455986	-0.00151136
0.509131	0.465425	6.114	0.00468252	-0.00151918
0.517236	0.471711	6.214	0.00476368	-0.00150902
0.526025	0.475397	6.314	0.00484092	-0.00159179
0.534424	0.482295	6.414	0.00483838	-0.00167122
0.542529	0.489263	6.514	0.00494811	-0.0016093
0.550635	0.496225	6.614	0.00507877	-0.0017207
0.559082	0.499159	6.714	0.00512197	-0.00177493
0.567383	0.508006	6.814	0.00523219	-0.0018417
0.575781	0.51362	6.914	0.00533502	-0.00185998
0.583887	0.521224	7.014	0.00541602	-0.00182938
0.592383	0.527764	7.114	0.00548506	-0.00193346
0.600439	0.534189	7.214	0.00554164	-0.0019026
0.608887	0.539094	7.314	0.00569356	-0.00197003
0.617529	0.546608	7.414	0.00580552	-0.00193414
0.626123	0.551931	7.514	0.00587962	-0.00199685
0.634131	0.555302	7.614	0.00591244	-0.00199748
0.642285	0.564669	7.714	0.006029	-0.00201024
0.650732	0.569476	7.814	0.00610519	-0.00207328
0.65957	0.57441	7.914	0.00613014	-0.00201721
0.667432	0.579201	8.014	0.00626082	-0.00207714
0.675586	0.585264	8.114	0.00631575	-0.00211352
0.683887	0.592144	8.214	0.00640346	-0.00217823
0.69292	0.598034	8.314	0.0064475	-0.00214388
0.701074	0.604805	8.414	0.00660294	-0.00216003
0.709082	0.609843	8.514	0.00664631	-0.00219289
0.717187	0.616377	8.614	0.00668821	-0.00221501
0.725977	0.62359	8.714	0.0067679	-0.00227623
0.734326	0.627402	8.814	0.00684259	-0.00233134
0.742383	0.631459	8.914	0.00697712	-0.00235372
0.750488	0.638101	9.014	0.00703943	-0.00238253
0.759033	0.646381	9.114	0.00718408	-0.00238952
0.767383	0.652174	9.214	0.00723954	-0.00242244
0.775879	0.655498	9.314	0.00729466	-0.00245786
0.784082	0.662282	9.414	0.00738035	-0.00243482
0.792627	0.665269	9.514	0.00742121	-0.00252516
0.800732	0.672736	9.614	0.00754218	-0.00257928
0.80918	0.675142	9.714	0.00756275	-0.00254473
0.817725	0.681521	9.814	0.00772701	-0.00259973
0.826172	0.688433	9.914	0.00777982	-0.00257881
0.83418	0.692745	10.014	0.0077819	-0.0025747
0.842383	0.698001	10.114	0.00793731	-0.00263423
0.850977	0.700835	10.214	0.00797923	-0.00265585
0.859863	0.70759	10.314	0.00816232	-0.00270283
0.867725	0.715479	10.414	0.0082172	-0.00272216
0.87583	0.718677	10.514	0.0083372	-0.00270792
0.884082	0.72543	10.614	0.00843527	-0.00277687
0.892969	0.729957	10.714	0.00847296	-0.00272585
0.900977	0.735271	10.814	0.00855511	-0.00281581
0.908984	0.741701	10.914	0.00862836	-0.00280389
0.917139	0.748074	11.014	0.00876897	-0.00291483
0.925928	0.750416	11.114	0.00876667	-0.002892
0.934326	0.7556	11.214	0.00885626	-0.00293126
0.942578	0.762099	11.314	0.00893076	-0.00295062
0.950732	0.76514	11.414	0.00898982	-0.00296345
0.959326	0.769789	11.514	0.00907566	-0.00303363
0.967676	0.779828	11.614	0.00907566	-0.00303363
0.976172	0.780584	11.714	0.00925728	-0.00310921
0.984326	0.785139	11.814	0.00928624	-0.00309968
0.992871	0.790083	11.914	0.00939197	-0.00305088
1.00088	0.793836	12.014	0.00943785	-0.00310212
1.00933	0.802392	12.114	0.00953764	-0.00315781
1.01787	0.807923	12.214	0.0096558	-0.00322104
1.02637	0.811382	12.314	0.00969523	-0.00319057
1.03433	0.818705	12.414	0.00986507	-0.00324073
1.04248	0.820668	12.514	0.00991608	-0.00326508
1.05098	0.826912	12.614	0.0100265	-0.0033214
1.05977	0.831777	12.714	0.0100933	-0.00334292
1.06758	0.832997	12.814	0.0101721	-0.00328147
1.07568	0.842176	12.914	0.0102868	-0.00336203
1.08403	0.843921	13.014	0.0103093	-0.00334636
1.09312	0.850683	13.114	0.010413	-0.00340904
1.10127	0.851937	13.214	0.0104912	-0.00342236
1.10928	0.861095	13.314	0.0105998	-0.0034384
1.11743	0.863101	13.414	0.0106366	-0.00350836
1.12627	0.867865	13.514	0.0106709	-0.00345759
1.13472	0.874489	13.614	0.0107678	-0.00356565
1.14277	0.878834	13.714	0.0108904	-0.00363451
1.15103	0.881771	13.814	0.0110068	-0.00366705
1.15962	0.887633	13.914	0.0111036	-0.00366424
1.16797	0.888481	14.014	0.0112188	-0.00371131
1.17637	0.897317	14.114	0.0112926	-0.00372316
1.18452	0.900877	14.214	0.0113286	-0.00367562
1.19297	0.903552	14.314	0.0114825	-0.00375546
1.20093	0.910449	14.414	0.0114935	-0.00373947
1.20923	0.915442	14.514	0.0116016	-0.00375206
1.21768	0.916993	14.614	0.0116512	-0.00381301
1.22612	0.924903	14.714	0.0117731	-0.00378299
1.23408	0.929387	14.814	0.0117879	-0.00384511
1.24229	0.93061	14.914	0.0118398	-0.0038319
1.25083	0.937338	15.014	0.011972	-0.0038472
1.25977	0.939139	15.114	0.0119828	-0.00387164
1.26763	0.945982	15.214	0.0121257	-0.00390998
1.27573	0.948353	15.314	0.0121497	-0.00396259
1.28403	0.954031	15.414	0.012315	-0.00398398
1.29297	0.95879	15.514	0.0123625	-0.00403099
1.30103	0.960298	15.614	0.0124186	-0.00409177
1.30903	0.966659	15.714	0.0125365	-0.00405986
1.31714	0.969883	15.814	0.0126776	-0.00412617
1.32603	0.974128	15.914	0.0128004	-0.00409708
1.33452	0.976981	16.014	0.0128482	-0.00421704
1.34272	0.985652	16.114	0.0129993	-0.00423095
1.35083	0.98906	16.214	0.0130472	-0.00422844
1.35928	0.994704	16.314	0.0130892	-0.00425422
1.36758	0.995281	16.414	0.0131954	-0.0042639
1.37598	1.00005	16.514	0.0132543	-0.00427788
1.38413	1.00437	16.614	0.0133542	-0.00431191
1.39263	1.00889	16.714	0.0134182	-0.00431755
1.40059	1.0109	16.814	0.0135408	-0.00436145
1.40903	1.01639	16.914	0.0135703	-0.00440024
1.41763	1.01901	17.014	0.0136407	-0.00441856
1.42612	1.02366	17.114	0.0137516	-0.00442466
1.43418	1.02668	17.214	0.0137994	-0.00447054
1.44233	1.03332	17.314	0.0139357	-0.00449861
1.45083	1.03342	17.414	0.0139551	-0.00450317
1.45967	1.0394	17.514	0.0140753	-0.00458567
1.46753	1.04378	17.614	0.0141931	-0.00462634
1.47568	1.04626	17.714	0.0141931	-0.00462634
1.48403	1.049	17.814	0.014351	-0.00468183
1.49307	1.05392	17.914	0.0144055	-0.00466887
1.50122	1.05644	18.014	0.0145476	-0.00473678
1.50923	1.05947	18.114	0.0146045	-0.00477932
1.51733	1.0615	18.214	0.0146804	-0.00478356
1.52612	1.06779	18.314	0.014809	-0.00481073
1.53442	1.07207	18.414	0.0148468	-0.0048533
1.54248	1.07557	18.514	0.014968	-0.00485357
1.55054	1.07693	18.614	0.0149876	-0.00484871
1.55913	1.08187	18.714	0.0151319	-0.00491906
1.56748	1.08379	18.814	0.0151919	-0.00489495
1.57598	1.08955	18.914	0.015349	-0.00494256
1.58423	1.09316	19.014	0.0153991	-0.00492045
1.59277	1.0974	19.114	0.0155209	-0.0049839
1.60078	1.09997	19.214	0.0156352	-0.00500973
1.60918	1.10143	19.314	0.0156937	-0.00505529
1.61763	1.10293	19.414	0.0158629	-0.00512358
1.62607	1.10897	19.514	0.0159219	-0.00512437
1.63408	1.11061	19.614	0.0160362	-0.00515372
1.64229	1.11476	19.714	0.0160826	-0.00521687
1.65098	1.11836	19.814	0.01619	-0.00525536
1.65991	1.11929	19.914	0.0162622	-0.00523163
1.66787	1.11998	20.014	0.0163031	-0.00526507
1.67603	1.12507	20.114	0.0164428	-0.00533307
1.68437	1.12803	20.214	0.0164883	-0.00539943
1.69331	1.13079	20.314	0.0165766	-0.00539749
1.70132	1.1329	20.414	0.0166324	-0.00542057
1.70928	1.1352	20.514	0.016697	-0.00545368
1.71738	1.13629	20.614	0.0168549	-0.00546313
1.72617	1.14156	20.714	0.0169308	-0.00546083
1.73447	1.14477	20.814	0.0170591	-0.00552047
1.74263	1.144875	20.914	0.0171774	-0.00561415
1.75073	1.14392	21.014	0.0172952	-0.005565
1.75928	1.15076	21.114	0.0173614	-0.00560314
1.76753	1.154	21.214	0.0173992	-0.00561739
1.77593	1.15379	21.314	0.0175788	-0.00573348
1.78394	1.15649	21.414	0.0176547	-0.00569804
1.79243	1.15884	21.514	0.0177782	-0.00570171
1.80049	1.16096	21.614	0.0178744	-0.00577593
1.80903	1.16388	21.714	0.0179487	-0.00581906
1.81763	1.16516	21.814	0.0180479	-0.00582563
1.82617	1.16687	21.914	0.0181123	-0.00586943
1.83418	1.17065	22.014	0.0182473	-0.00592983
1.84238	1.17143	22.114	0.0183272	-0.00597058
1.85088	1.1759	22.214	0.0184911	-0.00605671
1.85962	1.17426	22.314	0.0185311	-0.00610116
1.86738	1.18012	22.414	0.0187525	-0.00613071
1.87539	1.17818	22.514	0.0188083	-0.00620175
1.88369	1.18314	22.614	0.0189128	-0.00618505
1.89272	1.18133	22.714	0.0190785	-0.00624072
1.90093	1.18622	22.814	0.0191666	-0.00622515
1.90894	1.18529	22.914	0.0192723	-0.00622521
1.91704	1.18861	23.014	0.0193741	-0.00627622
1.92583	1.18879	23.114	0.0194964	-0.00629482
1.93428	1.19028	23.214	0.0195496	-0.00636336
1.94243	1.19172	23.314	0.0195812	-0.00637366
1.95049	1.19425	23.414	0.0197196	-0.0064254
1.95908	1.19809	23.514	0.0197944	-0.00649283
1.96738	1.19627	23.614	0.019934	-0.0065539
1.97598	1.19768	23.714	0.0200069	-0.00651828
1.98423	1.19687	23.814	0.0201945	-0.00659106
1.99287	1.1981	23.914	0.0202657	-0.00673669
2.00093	1.20142	24.014	0.0203557	-0.00667647
2.00938	1.19998	24.114	0.0205167	-0.0067755
2.01782	1.20157	24.214	0.0206446	-0.0068317
2.02627	1.20446	24.314	0.0208202	-0.00685781
2.03423	1.20417	24.414	0.020896	-0.00691813
2.04233	1.20331	24.514	0.0211107	-0.00697938
2.05083	1.20503	24.614	0.0211635	-0.00701576
2.05967	1.20528	24.714	0.0212211	-0.00710268
2.06753	1.20589	24.814	0.0213779	-0.00706357
2.07563	1.2077	24.914	0.0214397	-0.00710332
2.08394	1.20933	25.014	0.0216246	-0.00713207
2.09287	1.20863	25.114	0.0216726	-0.00717365
2.10093	1.21202	25.214	0.0218518	-0.00717677
2.10894	1.21366	25.314	0.0220028	-0.00722372
2.11704	1.21149	25.414	0.0221169	-0.00725724
2.12588	1.21364	25.514	0.0222206	-0.00728685
2.13438	1.21291	25.614	0.0223226	-0.00738889
2.14253	1.21385	25.714	0.0225661	-0.00744357
2.15068	1.21363	25.814	0.0225661	-0.00744357
2.15928	1.21433	25.914	0.0227828	-0.0074806
2.16758	1.21522	26.014	0.0229447	-0.00762447
2.17603	1.21701	26.114	0.0229967	-0.00763024
2.18423	1.21774	26.214	0.0231212	-0.00770668
2.19272	1.21786	26.314	0.023208	-0.00773764
2.20068	1.21743	26.414	0.0233234	-0.00787196
2.20913	1.21906	26.514	0.0234211	-0.00788395
2.21772	1.21943	26.614	0.023587	-0.00791814
2.22622	1.22046	26.714	0.0236168	-0.00795162
2.23423	1.21971	26.814	0.0237717	-0.00796942
2.24238	1.21958	26.914	0.0239751	-0.00794154
2.25088	1.22112	27.014	0.024035	-0.00797998
2.25967	1.22027	27.114	0.0242985	-0.00809831
2.26748	1.21938	27.214	0.024384	-0.00808178
2.27559	1.22201	27.314	0.0245362	-0.00820599
2.28394	1.22239	27.414	0.0246429	-0.00818202
2.29292	1.2216	27.514	0.0246829	-0.00824171
2.30107	1.2225	27.614	0.024952	-0.00833723
2.30913	1.22078	27.714	0.0250233	-0.0083239
2.31729	1.22111	27.814	0.0251691	-0.00833865
2.32612	1.22099	27.914	0.0252974	-0.00849586
2.33452	1.22298	28.014	0.0254942	-0.00852899
2.34263	1.22251	28.114	0.0255543	-0.00859194
2.35073	1.22318	28.214	0.0256218	-0.00863219
2.35928	1.22192	28.314	0.025875	-0.00870021
2.36763	1.22176	28.414	0.0259912	-0.00875724
2.37612	1.22233	28.514	0.0261741	-0.0088678
2.38428	1.22285	28.614	0.0263596	-0.00894607
2.39272	1.22122	28.714	0.0265154	-0.00899226
2.40068	1.22172	28.814	0.0266323	-0.00889837
2.40903	1.2218	28.914	0.0267278	-0.00896077
2.41753	1.22039	29.014	0.0269621	-0.00903163
2.42593	1.22473	29.114	0.0270375	-0.00905588
2.43389	1.22143	29.214	0.0271976	-0.00911207
2.44214	1.21906	29.314	0.027266	-0.00917812
2.45078	1.22068	29.414	0.0274836	-0.00925098
2.45972	1.21969	29.514	0.0275293	-0.00930898
2.46763	1.22003	29.614	0.0276064	-0.00936073
2.47573	1.22071	29.714	0.0278917	-0.00944718
2.48403	1.22038	29.814	0.0279626	-0.00950688
2.49302	1.21842	29.914	0.0280275	-0.00951237
2.50112	1.21696	30.014	0.028212	-0.00963243
2.50923	1.21915	30.114	0.0285197	-0.00974107
2.51743	1.2148	30.214	0.028628	-0.00976992
2.52632	1.21591	30.314	0.0287155	-0.00986731
2.53477	1.21687	30.414	0.0288968	-0.00992643
2.54297	1.21512	30.514	0.0290572	-0.0099376
2.55112	1.21645	30.614	0.029232	-0.00999616
2.55957	1.21754	30.714	0.0293072	-0.00997431
2.56782	1.21418	30.814	0.0295662	-0.010019
2.57617	1.2165	30.914	0.0296668	-0.0101075
2.58428	1.21613	31.014	0.0297554	-0.0101609
2.59277	1.213	31.114	0.0299732	-0.0102064
2.60083	1.21171	31.214	0.0301381	-0.0102358
2.60923	1.21247	31.314	0.0303882	-0.0104035
2.61782	1.20913	31.414	0.0304675	-0.0104751
2.62632	1.21238	31.514	0.0307901	-0.0104332
2.63423	1.20829	31.614	0.0308804	-0.0105127
2.64243	1.20927	31.714	0.0310119	-0.0106404
2.65093	1.20838	31.814	0.0311612	-0.010703
2.65972	1.20891	31.914	0.031261	-0.0107298
2.66758	1.20674	32.014	0.0315559	-0.0108812
2.67568	1.20612	32.114	0.0316568	-0.0109636
2.68408	1.20767	32.214	0.0318419	-0.0109759
2.69326	1.20573	32.314	0.0320572	-0.01109
2.70146	1.20468	32.414	0.032146	-0.0111312
2.70952	1.20444	32.514	0.0323216	-0.0111906
2.71758	1.20486	32.614	0.0324082	-0.0112543
2.72632	1.20255	32.714	0.032779	-0.0112872
2.73467	1.19997	32.814	0.032868	-0.011363
2.74268	1.19961	32.914	0.0331011	-0.0114124
2.75078	1.2018	33.014	0.0332635	-0.0115538
2.75928	1.19952	33.114	0.0333372	-0.011555
2.76763	1.19855	33.214	0.033509	-0.0116223
2.77607	1.19961	33.314	0.0336069	-0.0117505
2.78428	1.19999	33.414	0.0338961	-0.011863
2.79277	1.19696	33.514	0.0340006	-0.0119145
2.80083	1.19621	33.614	0.0341935	-0.0119432
2.80918	1.19849	33.714	0.0343073	-0.0120883
2.81768	1.19743	33.814	0.0345154	-0.0120911
2.82607	1.19658	33.914	0.0347309	-0.0122386
2.83408	1.19308	34.014	0.0347309	-0.0122386
2.84233	1.1929	34.114	0.0352227	-0.0123789
2.85088	1.19272	34.214	0.0353195	-0.0124196
2.85981	1.19185	34.314	0.035512	-0.0124393
2.86772	1.18972	34.414	0.0356279	-0.0125806
2.87583	1.18849	34.514	0.0358772	-0.0126803
2.88413	1.18722	34.614	0.0360687	-0.0127734
2.89307	1.18776	34.714	0.0362221	-0.012843
2.90107	1.18516	34.814	0.0363772	-0.0128712
2.90908	1.18486	34.914	0.0366307	-0.0130874
2.91719	1.18544	35.014	0.0368203	-0.0131036
2.92603	1.18412	35.114	0.0369742	-0.0132083
2.93447	1.18252	35.214	0.0370448	-0.0132144
2.94263	1.18192	35.314	0.0374379	-0.0133675
2.95078	1.18157	35.414	0.0375386	-0.013461
2.95938	1.18085	35.514	0.0378458	-0.013593
2.96768	1.1816	35.614	0.0380538	-0.0136028
2.97607	1.1792	35.714	0.0383196	-0.0136209
2.98423	1.17488	35.814	0.0383951	-0.0137446
2.99272	1.17496	35.914	0.0385471	-0.0138571
3.00068	1.17151	36.014	0.0387703	-0.0139298
3.00918	1.17436	36.114	0.0390183	-0.0140133
3.01782	1.17294	36.214	0.0392477	-0.0141963
3.02637	1.17266	36.314	0.0393385	-0.0142052
3.03437	1.16967	36.414	0.0397028	-0.0142156
3.04258	1.16787	36.514	0.0398555	-0.0143062
3.05103	1.16545	36.614	0.0400321	-0.0144582
3.05977	1.16341	36.714	0.0404415	-0.0145798
3.06753	1.15797	36.814	0.0405717	-0.0146134
3.07021	-0.124125	36.847	0.0407562	-0.0146615