File: Raw_Data./Tensile Nozzle 0.4 mm/0 Degrees/LH0.2_0D_N0.4/Test Run 5 05-19-21 11 18 29 AM/DAQ- Crosshead, … - (Timed).csv
"File Path: G:\TT\2\Test Run 5 05-19-21 11 18 29 AM\DAQ- Crosshead, … - (Timed).csv   "
"Test: Robin_Tension_4_DIC_Signals 2"
"Test Run: Test Run 5"
"Date: 18/05/2021 13:41:45"
""
""
"Crosshead ","Load ","Time ","Strain 1 ","Strain 2 ","Strain 3 ","Strain 4 ","PoissonRatio "
"mm","kN","sec","mm/mm","mm/mm","mm/mm","mm/mm","%"
"0.000341797","-0.10787","0.113","-6.6261e-05","-7.67951e-05","-8.53485e-05","9.22837e-06","115.898"
"0.00161133","-0.105896","0.213","-8.49379e-05","-8.12405e-05","-0.000101917","-3.07757e-05","95.6469"
"0.00380859","-0.105376","0.313","-6.94552e-05","-7.31512e-05","-9.48969e-05","-2.69514e-05","105.321"
"0.00683594","-0.102702","0.413","-6.64884e-05","-6.2928e-05","-7.77225e-05","-3.11598e-05","94.6451"
"0.00981445","-0.098288","0.513","-6.38839e-05","-8.03993e-05","-9.28934e-05","-4.20258e-05","125.852"
"0.0132813","-0.0931923","0.613","-1.20532e-05","-1.74985e-05","-5.6624e-05","-3.59431e-05","145.177"
"0.0166504","-0.089461","0.713","3.84828e-05","4.097e-05","3.92046e-05","-8.0378e-05","106.463"
"0.0206543","-0.0874813","0.813","8.99197e-05","6.64301e-05","5.79361e-05","-8.5194e-05","73.8771"
"0.0246094","-0.0816642","0.913","7.33354e-05","7.60853e-05","4.19291e-05","-0.00011376","103.75"
"0.028418","-0.0800705","1.013","9.84035e-05","0.000101272","2.71107e-05","-0.000118274","102.915"
"0.0318848","-0.0766969","1.113","0.000140998","0.000138548","0.000109521","-0.000161002","98.2624"
"0.0355957","-0.0712297","1.213","0.000171948","0.000157183","0.000151051","-0.000208586","91.4131"
"0.039209","-0.0656355","1.313","0.000202211","0.000191244","0.000144399","-0.000224613","94.5765"
"0.0425293","-0.0641808","1.413","0.00020047","0.000192996","0.000168582","-0.000234194","96.2718"
"0.0458984","-0.0597722","1.513","0.000277913","0.000241932","0.000233695","-0.000255057","87.0531"
"0.0493652","-0.0562615","1.613","0.00029104","0.000258812","0.000259826","-0.000198155","88.9266"
"0.0532715","-0.0525819","1.713","0.000284792","0.000286243","0.000248735","-0.000214294","100.51"
"0.0569336","-0.0481419","1.813","0.000305318","0.000292611","0.000284183","-0.000183723","95.8381"
"0.0606445","-0.0456384","1.913","0.000325647","0.00032095","0.000317618","-0.000187821","98.5576"
"0.063916","-0.0424419","2.013","0.000415773","0.000404452","0.000356323","-0.0001921","97.2771"
"0.0675781","-0.0369477","2.113","0.000429796","0.000424502","0.000415794","-0.000193449","98.7683"
"0.0711914","-0.0359391","2.213","0.000594261","0.000560078","0.000492073","-0.000205552","94.2478"
"0.0749023","-0.0313919","2.313","0.000593701","0.000554266","0.000551883","-0.000247006","93.3578"
"0.078125","-0.0247976","2.413","0.000569781","0.0005398","0.000573212","-0.000274991","94.7382"
"0.0815918","-0.0237432","2.513","0.000643049","0.00058868","0.000613831","-0.000255509","91.5451"
"0.0847656","-0.020873","2.613","0.000666899","0.000626006","0.0006223","-0.000275161","93.8682"
"0.0885254","-0.0176487","2.713","0.000698673","0.000635383","0.000664707","-0.000294309","90.9414"
"0.092041","-0.0121747","2.813","0.000697484","0.00062874","0.000672467","-0.000413763","90.144"
"0.0953125","-0.00991736","2.913","0.000822412","0.000765965","0.000771934","-0.000363495","93.1364"
"0.0983887","-0.00434794","3.013","0.000856205","0.000808931","0.000834196","-0.00037235","94.4787"
"0.101904","-0.00419052","3.113","0.000911951","0.000859971","0.000867391","-0.000369903","94.3001"
"0.105518","0.00105372","3.213","0.00094797","0.000896964","0.000917011","-0.000399186","94.6195"
"0.109131","0.00478338","3.313","0.000957215","0.000899805","0.000937179","-0.000446402","94.0024"
"0.112744","0.00917168","3.413","0.000994769","0.000936606","0.000937179","-0.000446402","94.1531"
"0.116211","0.0151251","3.513","0.00101221","0.000945604","0.000966631","-0.000470475","93.4197"
"0.119824","0.0175042","3.613","0.0010401","0.000990257","0.000986123","-0.000516698","95.2079"
"0.123242","0.0209136","3.713","0.00106822","0.00101677","0.00104104","-0.000544854","95.1836"
"0.12666","0.026106","3.813","0.0010719","0.0010362","0.00106159","-0.000555991","96.6695"
"0.129639","0.0282158","3.913","0.00110363","0.0010725","0.00106673","-0.000573218","97.1793"
"0.132813","0.0307958","4.013","0.00109789","0.00105179","0.00110523","-0.000581673","95.801"
"0.136035","0.0334556","4.113","0.00109508","0.00108356","0.00109754","-0.000617323","98.948"
"0.139502","0.0379747","4.213","0.00112185","0.00109794","0.00112044","-0.000615733","97.8687"
"0.14292","0.0419162","4.313","0.00114354","0.0011012","0.00112767","-0.000624543","96.2975"
"0.146582","0.045368","4.413","0.0011583","0.00111557","0.00111836","-0.000649526","96.311"
"0.150049","0.0506762","4.513","0.00117433","0.00110996","0.00113205","-0.000669034","94.5186"
"0.153955","0.0551457","4.613","0.00117548","0.00113343","0.00116224","-0.000499227","96.4227"
"0.157471","0.0548957","4.713","0.00126573","0.0012037","0.0012399","-0.000567678","95.0993"
"0.16084","0.0582777","4.813","0.001338","0.00126036","0.0012565","-0.0005596","94.1973"
"0.163574","0.0604773","4.913","0.00138151","0.00129672","0.00131547","-0.000590693","93.8625"
"0.166699","0.0666157","5.013","0.00144195","0.00134609","0.00134272","-0.000647773","93.3521"
"0.169922","0.0675405","5.113","0.00147537","0.00138865","0.00142695","-0.000609756","94.1222"
"0.173437","0.0740882","5.213","0.00156173","0.00145971","0.0014576","-0.000656591","93.4675"
"0.176465","0.0748273","5.313","0.00159558","0.00150554","0.00153536","-0.000688023","94.3569"
"0.179883","0.0771889","5.413","0.00164991","0.00155337","0.00157338","-0.00068203","94.1488"
"0.183301","0.0800906","5.513","0.00173776","0.00166192","0.0016556","-0.000706031","95.6358"
"0.187207","0.0847473","5.613","0.00174905","0.00166088","0.00173479","-0.000710363","94.959"
"0.190967","0.0893273","5.713","0.00184504","0.00174271","0.00177151","-0.000751968","94.4538"
"0.194531","0.0922902","5.813","0.00187234","0.00177802","0.00185265","-0.00079019","94.9625"
"0.197363","0.0955189","5.913","0.00192971","0.0018313","0.00184651","-0.000792211","94.9003"
"0.200586","0.0991524","6.013","0.00196101","0.00186095","0.00192017","-0.000815661","94.8975"
"0.203564","0.101705","6.113","0.00196198","0.00188562","0.0019365","-0.000832697","96.108"
"0.206934","0.106261","6.213","0.001958","0.0018767","0.00191746","-0.000872872","95.8478"
"0.209961","0.109194","6.313","0.00196008","0.00187347","0.00193622","-0.00088076","95.5813"
"0.21333","0.112877","6.413","0.00198942","0.00192631","0.00195201","-0.000882483","96.8277"
"0.216455","0.116556","6.513","0.00198972","0.0019265","0.00199323","-0.000922161","96.8227"
"0.220117","0.120016","6.613","0.00202069","0.00190742","0.00197935","-0.000932001","94.3945"
"0.223779","0.123215","6.713","0.00198504","0.00192956","0.00198453","-0.000953317","97.2051"
"0.227441","0.126502","6.813","0.0020226","0.00197699","0.00202019","-0.000957027","97.745"
"0.230469","0.127757","6.913","0.00202215","0.00196987","0.00201859","-0.000989361","97.4146"
"0.233984","0.131994","7.013","0.00202899","0.0019619","0.00203277","-0.00103848","96.6934"
"0.237207","0.135059","7.113","0.00204175","0.00198531","0.00201","-0.00103901","97.2357"
"0.240527","0.138372","7.213","0.00207863","0.00199185","0.00204529","-0.000999005","95.8251"
"0.243359","0.142677","7.313","0.00214014","0.00202199","0.00208663","-0.00103924","94.4793"
"0.246631","0.146074","7.413","0.00214014","0.00202199","0.00209499","-0.000905978","94.4793"
"0.249854","0.148587","7.513","0.00218499","0.00207244","0.00213642","-0.000944371","94.8489"
"0.253516","0.155692","7.613","0.00228847","0.00213246","0.00215926","-0.000968786","93.1828"
"0.256836","0.156792","7.713","0.00229592","0.00217462","0.00223419","-0.00100679","94.7167"
"0.260352","0.159045","7.813","0.00236127","0.00222651","0.00227913","-0.00104154","94.2929"
"0.263379","0.161822","7.913","0.00242322","0.00228287","0.00236392","-0.000980791","94.2081"
"0.266895","0.166392","8.013","0.00250301","0.00237683","0.00236309","-0.00100981","94.9589"
"0.270313","0.16868","8.113","0.00254365","0.00240051","0.00244034","-0.00104337","94.3727"
"0.273926","0.170517","8.213","0.0025596","0.0024297","0.00253038","-0.00106153","94.925"
"0.277002","0.176044","8.313","0.00264392","0.00252014","0.00255201","-0.00105369","95.3183"
"0.280371","0.176664","8.413","0.00271453","0.0025961","0.00265702","-0.00114236","95.6372"
"0.283447","0.182826","8.513","0.00274778","0.00262277","0.00265954","-0.00115892","95.4505"
"0.286963","0.182971","8.613","0.00275304","0.00264367","0.00271367","-0.00112779","96.0273"
"0.290381","0.187849","8.713","0.00280629","0.00271412","0.00273802","-0.00118428","96.7156"
"0.293848","0.192466","8.813","0.00282909","0.00274861","0.00279891","-0.00119793","97.1553"
"0.29668","0.193699","8.913","0.00287143","0.00277443","0.00285007","-0.00119308","96.6219"
"0.3","0.196511","9.013","0.00288978","0.00278961","0.00285294","-0.00123294","96.5336"
"0.30332","0.200849","9.113","0.00290127","0.00278486","0.00285102","-0.00123515","95.9876"
"0.306934","0.205344","9.213","0.00282213","0.0027748","0.00282459","-0.00129419","98.3229"
"0.310254","0.205154","9.313","0.00284769","0.00277381","0.00285726","-0.00128857","97.4056"
"0.313916","0.209685","9.413","0.00291906","0.00279883","0.00289806","-0.00130272","95.8812"
"0.317139","0.210436","9.513","0.00294099","0.00284793","0.00290134","-0.00131503","96.8358"
"0.320654","0.214417","9.613","0.00296023","0.00285213","0.00296381","-0.00134521","96.3483"
"0.323828","0.218465","9.713","0.00298544","0.00288097","0.00296885","-0.00135543","96.5007"
"0.327197","0.221768","9.813","0.0030116","0.0028936","0.00299058","-0.00136562","96.0818"
"0.330029","0.224718","9.913","0.00304743","0.0029139","0.00297597","-0.00139631","95.6183"
"0.333252","0.228146","10.013","0.00304058","0.00290264","0.00299189","-0.00142184","95.4634"
"0.336377","0.231855","10.113","0.00313111","0.00296551","0.00305235","-0.0013485","94.7111"
"0.339844","0.231682","10.213","0.00311315","0.00296982","0.00306579","-0.00125623","95.396"
"0.343164","0.234316","10.313","0.00312094","0.00298171","0.00307906","-0.0012875","95.5388"
"0.346777","0.242048","10.413","0.00323611","0.00307028","0.00311275","-0.00133066","94.8756"
"0.350146","0.242041","10.513","0.00326878","0.00310502","0.0032223","-0.00138652","94.9902"
"0.354004","0.246925","10.613","0.00331961","0.00316444","0.00323485","-0.00134916","95.3257"
"0.35752","0.251087","10.713","0.00334187","0.00318179","0.00329739","-0.00140663","95.2099"
"0.36084","0.254734","10.813","0.00342694","0.00325978","0.00337784","-0.00138319","95.1222"
"0.363477","0.256237","10.913","0.00342839","0.00325822","0.00334412","-0.00144055","95.0364"
"0.366602","0.258193","11.013","0.00348833","0.00334397","0.00343966","-0.00144302","95.8616"
"0.369775","0.260698","11.113","0.00352542","0.00338932","0.00346766","-0.00146277","96.1395"
"0.373291","0.262099","11.213","0.00352814","0.00340013","0.00348338","-0.00148746","96.3717"
"0.376367","0.265808","11.313","0.00358478","0.0034515","0.00350156","-0.00147189","96.2821"
"0.379736","0.269109","11.413","0.0035934","0.00348484","0.00357929","-0.00155584","96.9789"
"0.383203","0.272966","11.513","0.00366073","0.00353168","0.00360653","-0.00154845","96.4747"
"0.387109","0.276511","11.613","0.00369578","0.00355707","0.00364434","-0.0015785","96.2468"
"0.39082","0.277375","11.713","0.00373197","0.00361909","0.00373234","-0.00161279","96.9753"
"0.394385","0.282244","11.813","0.00373641","0.00362422","0.0037369","-0.0016234","96.9974"
"0.397266","0.28176","11.913","0.00377284","0.00366451","0.0037675","-0.00162772","97.1287"
"0.400488","0.290881","12.013","0.00380401","0.00368093","0.00376629","-0.00165039","96.7645"
"0.403564","0.291659","12.113","0.00381906","0.00367729","0.00379082","-0.0016707","96.2878"
"0.406934","0.294869","12.213","0.00384487","0.00370615","0.0038038","-0.00166412","96.3921"
"0.409961","0.297964","12.313","0.0038775","0.00373032","0.00381967","-0.00167809","96.2043"
"0.41333","0.301818","12.413","0.00392386","0.00374348","0.0038674","-0.00169018","95.403"
"0.416504","0.299839","12.513","0.00397548","0.0037882","0.00390828","-0.00169317","95.2891"
"0.420264","0.308373","12.613","0.00398546","0.00381947","0.00395495","-0.00173145","95.8351"
"0.423877","0.30897","12.713","0.0040178","0.00386008","0.00396284","-0.00174126","96.0745"
"0.42749","0.314727","12.813","0.00407541","0.00389605","0.00402704","-0.00179348","95.599"
"0.430518","0.313723","12.913","0.0040882","0.00390263","0.00404476","-0.00167743","95.4608"
"0.434082","0.318402","13.013","0.00410474","0.00394528","0.00404194","-0.00168193","96.1152"
"0.437305","0.318922","13.113","0.00411887","0.00395174","0.00409604","-0.00169847","95.9423"
"0.440625","0.324811","13.213","0.00420113","0.00404017","0.00416091","-0.00166885","96.1686"
"0.443457","0.323911","13.313","0.00422886","0.00404433","0.00419432","-0.00173252","95.6364"
"0.446777","0.330342","13.413","0.00425251","0.00409512","0.00419949","-0.00177004","96.2989"
"0.450049","0.332369","13.513","0.00425854","0.00410722","0.00422067","-0.00176477","96.4467"
"0.45376","0.335287","13.613","0.00427443","0.00414234","0.00423916","-0.00178105","96.9098"
"0.45708","0.337749","13.713","0.00430492","0.00413976","0.0042646","-0.00179748","96.1635"
"0.460547","0.34153","13.813","0.00429677","0.00416238","0.00428118","-0.00181274","96.8723"
"0.463672","0.34238","13.913","0.00436247","0.00422818","0.0043252","-0.00182688","96.9217"
"0.467187","0.345944","14.013","0.00440892","0.00426591","0.00438419","-0.00188189","96.7564"
"0.470557","0.350224","14.113","0.00445731","0.0042983","0.00440827","-0.00188334","96.4326"
"0.474219","0.353427","14.213","0.00446749","0.00432967","0.00445526","-0.00186346","96.915"
"0.477295","0.353994","14.313","0.00448677","0.00433415","0.00444639","-0.00192954","96.5984"
"0.480664","0.355718","14.413","0.00449017","0.00434885","0.00446125","-0.00199696","96.8527"
"0.483691","0.35864","14.513","0.0045473","0.00437442","0.00451396","-0.00197666","96.1982"
"0.487207","0.360443","14.613","0.00463777","0.00446195","0.00454033","-0.00196416","96.209"
"0.490576","0.365545","14.713","0.00467936","0.00448773","0.00464015","-0.00196662","95.9048"
"0.494043","0.369235","14.813","0.00473916","0.00453955","0.00464643","-0.00197677","95.7881"
"0.496875","0.369965","14.913","0.00475982","0.00456058","0.0047043","-0.00206778","95.8141"
"0.500146","0.372731","15.013","0.00484686","0.004637","0.00476147","-0.00204089","95.6702"
"0.503418","0.373501","15.113","0.00487673","0.00466496","0.00479214","-0.00206636","95.6575"
"0.50708","0.380285","15.213","0.00489965","0.00468108","0.00485964","-0.00210223","95.5391"
"0.5104","0.379175","15.313","0.0049795","0.00472015","0.00487967","-0.00210021","94.7916"
"0.514063","0.38415","15.413","0.00499339","0.00476218","0.00493839","-0.00212441","95.3697"
"0.517285","0.384335","15.513","0.00503758","0.00482938","0.0049691","-0.00212404","95.8671"
"0.520801","0.387977","15.613","0.0050769","0.00488328","0.00503887","-0.00203544","96.1863"
"0.524023","0.391427","15.713","0.00514083","0.00493468","0.00505158","-0.0020198","95.9899"
"0.527344","0.393849","15.813","0.00513388","0.00493396","0.00511403","-0.00203055","96.1059"
"0.530176","0.394079","15.913","0.00514044","0.00497038","0.00512981","-0.00210956","96.6917"
"0.533398","0.399803","16.013","0.005158","0.00499648","0.00515082","-0.00209475","96.8686"
"0.536475","0.402345","16.113","0.00517209","0.00501686","0.0051945","-0.002081","96.9987"
"0.539941","0.407021","16.213","0.00517846","0.00502519","0.00517946","-0.00212532","97.0402"
"0.543311","0.406379","16.313","0.00513527","0.00502252","0.00520034","-0.00217506","97.8044"
"0.546924","0.408886","16.413","0.00519633","0.00502008","0.00521265","-0.00212321","96.6082"
"0.550244","0.410165","16.513","0.00517371","0.00502548","0.00518363","-0.00215887","97.1349"
"0.554102","0.413669","16.613","0.00518399","0.00503171","0.00519874","-0.002203","97.0625"
"0.557617","0.417067","16.713","0.00518722","0.00506338","0.0051849","-0.00220925","97.6126"
"0.560938","0.421342","16.813","0.00518416","0.00506964","0.00523151","-0.00221273","97.791"
"0.563574","0.420835","16.913","0.00525071","0.00507627","0.00522148","-0.00223088","96.6778"
"0.56665","0.423248","17.013","0.00529416","0.00512163","0.00527767","-0.00227325","96.7411"
"0.569873","0.426073","17.113","0.00535724","0.00514971","0.00530527","-0.00228596","96.1262"
"0.573389","0.428047","17.213","0.00540454","0.00517772","0.00530924","-0.00228215","95.8032"
"0.576465","0.431422","17.313","0.00543432","0.00521598","0.00538625","-0.00233043","95.9822"
"0.579834","0.436523","17.413","0.00552572","0.00527285","0.00544656","-0.00234398","95.4238"
"0.583203","0.436965","17.513","0.00559543","0.00532815","0.00550581","-0.00237296","95.2232"
"0.587158","0.440221","17.613","0.00565807","0.00539394","0.00556233","-0.00232101","95.3318"
"0.590869","0.439482","17.713","0.00568986","0.00543966","0.0056134","-0.00238729","95.6027"
"0.594434","0.444904","17.813","0.00577156","0.00549833","0.00564037","-0.00240599","95.2659"
"0.597266","0.446388","17.913","0.0058227","0.00556839","0.00569389","-0.00242235","95.6324"
"0.600488","0.448928","18.013","0.0059045","0.00565972","0.00585236","-0.00243355","95.8543"
"0.603516","0.452502","18.113","0.00592278","0.00569109","0.00584637","-0.00246017","96.0882"
"0.606885","0.453325","18.213","0.00594181","0.00569273","0.00587453","-0.00248834","95.808"
"0.609912","0.455951","18.313","0.00599522","0.00578381","0.00592681","-0.00247041","96.4737"
"0.613281","0.459625","18.413","0.00602179","0.00579493","0.00600434","-0.00237846","96.2327"
"0.616455","0.462757","18.513","0.0060173","0.00584652","0.00600179","-0.0023946","97.1618"
"0.620215","0.466305","18.613","0.00605887","0.00587266","0.00603207","-0.00241024","96.9267"
"0.623975","0.46748","18.713","0.00608411","0.00590486","0.00608537","-0.00241532","97.0538"
"0.627588","0.468579","18.813","0.00604785","0.00592178","0.00608951","-0.00245035","97.9155"
"0.630713","0.471308","18.913","0.00605732","0.00593442","0.00611108","-0.00246383","97.9711"
"0.634229","0.474095","19.013","0.0060913","0.00592222","0.0061231","-0.00247969","97.2242"
"0.6375","0.477551","19.113","0.00611122","0.00594465","0.00614102","-0.00252782","97.2744"
"0.64082","0.479476","19.213","0.00612093","0.00598632","0.00615961","-0.00254869","97.8008"
"0.643604","0.482665","19.313","0.00613762","0.00597573","0.00617184","-0.00255527","97.3623"
"0.646924","0.483495","19.413","0.00616542","0.00601608","0.00619414","-0.0025247","97.5778"
"0.650195","0.486185","19.513","0.00618876","0.00598041","0.0061876","-0.00256862","96.6334"
"0.653906","0.491241","19.613","0.00619212","0.00598815","0.00618022","-0.00259725","96.706"
"0.657178","0.491842","19.713","0.00622373","0.00599455","0.00619605","-0.00262922","96.3176"
"0.660645","0.49713","19.813","0.00629403","0.00605132","0.00625409","-0.00262934","96.1438"
"0.663672","0.496216","19.913","0.00634405","0.00610821","0.00630012","-0.00261048","96.2825"
"0.667236","0.502098","20.013","0.00641337","0.00613614","0.00631254","-0.00261847","95.6773"
"0.670557","0.503399","20.113","0.00644544","0.00616617","0.0063623","-0.00270198","95.6672"
"0.674121","0.506651","20.213","0.00652954","0.0062251","0.00641735","-0.00270895","95.3375"
"0.677148","0.506845","20.313","0.00655063","0.00625459","0.00646707","-0.00270784","95.4807"
"0.680518","0.510137","20.413","0.00660373","0.00633272","0.00652781","-0.00276561","95.8961"
"0.683545","0.511445","20.513","0.00664442","0.00637585","0.00658817","-0.00272479","95.958"
"0.687061","0.514415","20.613","0.00673702","0.00647172","0.00665436","-0.00274266","96.0621"
"0.690381","0.514329","20.713","0.00673539","0.00646952","0.0066648","-0.00278917","96.0526"
"0.693848","0.516791","20.813","0.00676578","0.00653446","0.0067319","-0.00283014","96.581"
"0.69668","0.519772","20.913","0.00681858","0.00659438","0.00675913","-0.00284988","96.7119"
"0.699951","0.523506","21.013","0.00682712","0.00662414","0.00685235","-0.00282635","97.0269"
"0.703271","0.521447","21.113","0.00686186","0.00665906","0.00684813","-0.00284543","97.0445"
"0.706885","0.527478","21.213","0.00685886","0.00667359","0.00690852","-0.00273335","97.2988"
"0.710156","0.527914","21.313","0.00694782","0.00673935","0.00693441","-0.00274417","96.9995"
"0.713721","0.531623","21.413","0.00693797","0.00672316","0.00693319","-0.00275697","96.9038"
"0.716992","0.534196","21.513","0.0069355","0.00674564","0.00694329","-0.00278939","97.2625"
"0.720557","0.535496","21.613","0.00693725","0.00679299","0.00694059","-0.00282825","97.9205"
"0.72373","0.539099","21.713","0.00696304","0.0068074","0.00702618","-0.00283952","97.7648"
"0.7271","0.542283","21.813","0.00700593","0.00681852","0.00702618","-0.00283952","97.325"
"0.72998","0.543346","21.913","0.00700537","0.00682778","0.00704726","-0.00287113","97.4649"
"0.733252","0.545076","22.013","0.00703778","0.0068198","0.0070446","-0.00287303","96.9027"
"0.736328","0.547848","22.113","0.0070593","0.00683639","0.00704245","-0.00292885","96.8423"
"0.739844","0.548931","22.213","0.00706872","0.00684369","0.00709161","-0.00292619","96.8165"
"0.743164","0.552407","22.313","0.00711587","0.00688939","0.00711556","-0.00293152","96.8173"
"0.746777","0.554135","22.413","0.00717297","0.00692731","0.00714955","-0.0029589","96.5752"
"0.750195","0.555531","22.513","0.00721886","0.00694913","0.0071537","-0.00296161","96.2635"
"0.754053","0.558038","22.613","0.00725611","0.00696673","0.00718867","-0.00299072","96.0119"
"0.75752","0.562203","22.713","0.00726798","0.00698327","0.00724597","-0.00298886","96.0827"
"0.76084","0.564734","22.813","0.00731631","0.00703981","0.00729894","-0.00303598","96.2208"
"0.763477","0.56456","22.913","0.00735444","0.00708245","0.00734225","-0.00307589","96.3017"
"0.766602","0.569534","23.013","0.00741218","0.00711516","0.00734124","-0.00304012","95.9928"
"0.769824","0.568813","23.113","0.00745396","0.00716291","0.00741593","-0.00311452","96.0954"
"0.77334","0.573843","23.213","0.00750152","0.0072225","0.00743561","-0.00308829","96.2805"
"0.776416","0.573173","23.313","0.00752162","0.00725033","0.00751044","-0.00311679","96.3932"
"0.779834","0.576657","23.413","0.00758071","0.00734056","0.00754399","-0.00312578","96.8321"
"0.783301","0.579684","23.513","0.00758581","0.0073674","0.00758231","-0.0031439","97.1208"
"0.787207","0.582341","23.613","0.00760047","0.00738102","0.00761523","-0.00314315","97.1127"
"0.790918","0.583718","23.713","0.00759757","0.00740745","0.00762868","-0.00313376","97.4976"
"0.794531","0.587939","23.813","0.00766442","0.0074264","0.00768499","-0.00314453","96.8945"
"0.797363","0.588325","23.913","0.00771791","0.00749842","0.0077303","-0.00310507","97.1561"
"0.800586","0.589625","24.013","0.00773437","0.00750996","0.00775643","-0.0031252","97.0985"
"0.803613","0.591647","24.113","0.00775643","0.0075215","0.00780746","-0.00313413","96.9712"
"0.806982","0.592371","24.213","0.00783044","0.00761259","0.00783042","-0.00311953","97.2179"
"0.810059","0.597203","24.313","0.00783431","0.00762162","0.00786948","-0.00317343","97.2851"
"0.813428","0.600449","24.413","0.00788322","0.00765742","0.00790569","-0.00319629","97.1357"
"0.816602","0.599876","24.513","0.00790101","0.0076695","0.00793686","-0.00319811","97.0699"
"0.820361","0.603356","24.613","0.00795709","0.00766899","0.00795415","-0.00319141","96.3793"
"0.824072","0.607732","24.713","0.00796236","0.00770199","0.00796254","-0.00321586","96.73"
"0.827686","0.608983","24.813","0.00797275","0.0077256","0.00796579","-0.00323369","96.9001"
"0.830762","0.610587","24.913","0.00803178","0.00777124","0.00798653","-0.0032242","96.7561"
"0.834229","0.614596","25.013","0.00807537","0.00777027","0.00806696","-0.00327618","96.2218"
"0.8375","0.615149","25.113","0.00812139","0.00780538","0.00810031","-0.00327501","96.1089"
"0.84082","0.618029","25.213","0.00813571","0.00783959","0.00814446","-0.0033058","96.3602"
"0.843604","0.622793","25.313","0.00806161","0.00791143","0.00816091","-0.00331162","98.1371"
"0.846826","0.620692","25.413","0.00806707","0.00793588","0.00821368","-0.00333119","98.3738"
"0.85","0.623265","25.513","0.00811806","0.00799845","0.00821622","-0.00334404","98.5266"
"0.853711","0.62482","25.613","0.00817817","0.00801728","0.0082931","-0.00336554","98.0327"
"0.857031","0.627569","25.713","0.00819382","0.00806696","0.00833412","-0.0033815","98.4518"
"0.860498","0.629211","25.813","0.00818695","0.00804149","0.0083109","-0.00340649","98.2233"
"0.863574","0.632119","25.913","0.00816927","0.00802213","0.00829441","-0.00338355","98.1989"
"0.866992","0.633394","26.013","0.00825135","0.00808505","0.00833686","-0.00342448","97.9846"
"0.87041","0.637158","26.113","0.00823472","0.00809675","0.0083773","-0.00345997","98.3245"
"0.874072","0.638028","26.213","0.00831496","0.0081375","0.00839003","-0.00344134","97.8658"
"0.877148","0.642929","26.313","0.00832158","0.00814678","0.00839802","-0.0034263","97.8994"
"0.880518","0.642832","26.413","0.00836462","0.00817629","0.00845723","-0.00345663","97.7485"
"0.883496","0.644661","26.513","0.00843431","0.00820838","0.0084596","-0.00345237","97.3213"
"0.887061","0.647285","26.613","0.0084549","0.00822713","0.00850804","-0.00346406","97.3061"
"0.890478","0.649857","26.713","0.00851539","0.00830574","0.00854184","-0.00342091","97.538"
"0.893897","0.652439","26.813","0.00850259","0.00831643","0.00860734","-0.00343023","97.8105"
"0.89668","0.652666","26.913","0.00852356","0.00834988","0.00861041","-0.00341434","97.9624"
"0.899951","0.65558","27.013","0.0085696","0.00839122","0.00864093","-0.0034543","97.9185"
"0.90332","0.65864","27.113","0.00859275","0.00840215","0.00870612","-0.00347198","97.7818"
"0.906982","0.660427","27.213","0.00865244","0.00847316","0.00875009","-0.00348998","97.928"
"0.910303","0.66114","27.313","0.00867395","0.0085019","0.00880269","-0.00351052","98.0165"
"0.913916","0.662215","27.413","0.00871425","0.00854393","0.00883452","-0.00350488","98.0455"
"0.917187","0.66821","27.513","0.00877711","0.00857647","0.00889138","-0.00352768","97.7141"
"0.920752","0.667368","27.613","0.00878612","0.00861992","0.00894165","-0.00355679","98.1084"
"0.923926","0.66908","27.713","0.00885047","0.00868469","0.00896438","-0.003572","98.1269"
"0.927197","0.673669","27.813","0.00886976","0.00869343","0.00901949","-0.00356902","98.012"
"0.930029","0.673873","27.913","0.00895709","0.0087896","0.00903602","-0.00359728","98.1301"
"0.933203","0.677996","28.013","0.00896892","0.00880774","0.00912782","-0.00357178","98.2029"
"0.936279","0.677161","28.113","0.0090171","0.00887333","0.00915611","-0.00359203","98.4056"
"0.939648","0.680228","28.213","0.00904882","0.00889235","0.00921986","-0.00361685","98.2708"
"0.942969","0.683399","28.313","0.00906703","0.00891682","0.00924698","-0.00362336","98.0724"
"0.946533","0.684797","28.413","0.00910325","0.00893436","0.00926077","-0.00361297","98.1447"
"0.949951","0.688447","28.513","0.00908054","0.00895977","0.0092778","-0.00369026","98.67"
"0.953809","0.691157","28.613","0.00911637","0.00898584","0.00928326","-0.00365035","98.5682"
"0.957324","0.687063","28.713","0.0091423","0.00899724","0.00932615","-0.00369005","98.4133"
"0.960742","0.691299","28.813","0.00916298","0.00899734","0.00931068","-0.00369897","98.1923"
"0.963428","0.693736","28.913","0.00915395","0.0090038","0.00932018","-0.00370329","98.3597"
"0.966553","0.699196","29.013","0.00920719","0.0090011","0.00931336","-0.00371873","97.7616"
"0.969775","0.697678","29.113","0.00922129","0.00901003","0.00933435","-0.00370817","97.709"
"0.973291","0.703171","29.213","0.00921722","0.00905129","0.00934229","-0.00374221","98.1998"
"0.976367","0.701667","29.313","0.00924434","0.00907448","0.00937678","-0.00374709","98.1625"
"0.979785","0.702393","29.413","0.00926673","0.00907926","0.009395","-0.00378205","97.977"
"0.983252","0.708129","29.513","0.00929779","0.00911225","0.00938961","-0.00379913","98.0045"
"0.987109","0.710316","29.613","0.00931407","0.00911703","0.00940262","-0.00372513","97.8845"
"0.990869","0.710846","29.713","0.00936048","0.00915503","0.00948717","-0.00376216","97.8051"
"0.994482","0.714585","29.813","0.00946337","0.00922753","0.00952402","-0.00373748","97.5079"
"0.997363","0.718335","29.913","0.00946337","0.00922753","0.00956403","-0.00373433","97.5079"
"1.00054","0.718272","30.013","0.00958449","0.00934537","0.00963125","-0.00376729","97.5051"
"1.00352","0.719488","30.113","0.00959916","0.00939197","0.00973309","-0.00378986","97.8416"
"1.00688","0.722327","30.213","0.00966883","0.00943596","0.00974135","-0.00381004","97.5915"
"1.00996","0.722662","30.313","0.009685","0.00947492","0.00978858","-0.00380515","97.8309"
"1.01338","0.729008","30.413","0.00980468","0.00957734","0.00986733","-0.00383452","97.6813"
"1.0165","0.726573","30.513","0.00981883","0.00960035","0.0099186","-0.00386858","97.7749"
"1.02017","0.732726","30.613","0.00985761","0.00965526","0.0100006","-0.00385718","97.9473"
"1.02388","0.731906","30.713","0.00989637","0.00969277","0.0100311","-0.00388894","97.9427"
"1.02749","0.73468","30.813","0.00993224","0.00975627","0.0100945","-0.00389272","98.2283"
"1.03052","0.736436","30.913","0.00997155","0.00979474","0.0101218","-0.00388958","98.2269"
"1.03398","0.740125","31.013","0.00999514","0.00981448","0.0101458","-0.00391515","98.1925"
"1.03721","0.742135","31.113","0.0100127","0.009827","0.0101707","-0.00393611","98.1454"
"1.04058","0.744961","31.213","0.010013","0.00982735","0.0101866","-0.00394448","98.1459"
"1.04341","0.744598","31.313","0.00999198","0.00982729","0.010184","-0.00396508","98.3518"
"1.04663","0.746112","31.413","0.00997603","0.00984586","0.0101843","-0.0039746","98.6952"
"1.04985","0.746789","31.513","0.0100143","0.00983833","0.0102088","-0.00400547","98.2428"
"1.05356","0.750597","31.613","0.0100434","0.00987997","0.0102571","-0.00398953","98.3728"
"1.05693","0.752238","31.713","0.0101056","0.00988585","0.0102197","-0.00400779","97.8255"
"1.06045","0.754929","31.813","0.0101133","0.00988753","0.0102453","-0.00401922","97.7676"
"1.06353","0.756881","31.913","0.0101093","0.00988827","0.0102275","-0.00401271","97.8136"
"1.06704","0.757869","32.013","0.0101563","0.00989845","0.0102734","-0.00402672","97.4612"
"1.07046","0.761204","32.113","0.0101931","0.00991602","0.0102813","-0.00404109","97.2817"
"1.07412","0.763661","32.213","0.0101904","0.00992518","0.010292","-0.00404334","97.3974"
"1.07715","0.763607","32.313","0.0102527","0.00999445","0.0103469","-0.00404769","97.4811"
"1.08052","0.764844","32.413","0.0102884","0.0100204","0.0103597","-0.00404485","97.3951"
"1.08354","0.769275","32.513","0.0103234","0.0100452","0.0104189","-0.00402824","97.3051"
"1.08706","0.770528","32.613","0.0104148","0.0101311","0.0104346","-0.00403636","97.276"
"1.09048","0.772665","32.713","0.0104588","0.0101756","0.0105553","-0.00405011","97.2922"
"1.0939","0.776716","32.813","0.0105077","0.0102276","0.0105514","-0.00410066","97.3343"
"1.09673","0.776083","32.913","0.0105225","0.0102582","0.0106316","-0.004097","97.4882"
"1.10005","0.77641","33.013","0.0106138","0.0103508","0.0107239","-0.00412161","97.5221"
"1.10342","0.779975","33.113","0.0106523","0.0103916","0.0107142","-0.0041402","97.5526"
"1.10708","0.782513","33.213","0.0106915","0.0104207","0.0108093","-0.00411708","97.4671"
"1.11035","0.784093","33.313","0.010715","0.0104812","0.0108261","-0.00412349","97.818"
"1.11401","0.790678","33.413","0.0107991","0.0105226","0.0109203","-0.00413484","97.4396"
"1.11724","0.786863","33.513","0.0108091","0.0105612","0.010913","-0.00415876","97.7066"
"1.12085","0.789324","33.613","0.0108409","0.0105874","0.0109597","-0.00419143","97.6616"
"1.12407","0.791765","33.713","0.0108784","0.0106423","0.0109772","-0.00417956","97.8296"
"1.12744","0.793248","33.813","0.0108999","0.0106451","0.0109971","-0.00419636","97.6624"
"1.13027","0.798652","33.913","0.0108886","0.0106435","0.0110088","-0.00422916","97.749"
"1.13354","0.796725","34.013","0.010948","0.0106619","0.0110519","-0.00421152","97.3867"
"1.13667","0.800386","34.113","0.0109672","0.0107139","0.0110827","-0.00424848","97.6904"
"1.14023","0.801336","34.213","0.0109648","0.0107078","0.0110752","-0.00427444","97.6561"
"1.14355","0.803494","34.313","0.010959","0.0106911","0.011083","-0.00428532","97.5554"
"1.14717","0.806874","34.413","0.0110154","0.0107473","0.0111064","-0.00430159","97.5661"
"1.15063","0.80968","34.513","0.011022","0.0107322","0.0111276","-0.00429866","97.3707"
"1.15459","0.811648","34.613","0.0110406","0.010759","0.0111667","-0.00430997","97.4494"
"1.15801","0.813719","34.713","0.0110654","0.0107836","0.0111757","-0.00433172","97.4533"
"1.16128","0.812131","34.813","0.0110912","0.0108001","0.0112193","-0.00432842","97.3754"
"1.16392","0.814916","34.913","0.0111482","0.0108582","0.0112541","-0.00432266","97.3987"
"1.16714","0.819259","35.013","0.0111774","0.0108779","0.0113024","-0.00435134","97.3205"
"1.17031","0.818076","35.113","0.0112165","0.0109073","0.0113043","-0.00431064","97.2433"
"1.17383","0.819807","35.213","0.0112725","0.0109512","0.0113293","-0.00431662","97.1497"
"1.17676","0.822269","35.313","0.0113057","0.0109685","0.011431","-0.00431432","97.0174"
"1.18018","0.821644","35.413","0.0113246","0.011015","0.0114281","-0.00434961","97.2661"
"1.18359","0.82502","35.513","0.0113362","0.0110214","0.0114279","-0.00436771","97.2231"
"1.18745","0.829594","35.613","0.0114065","0.0111113","0.0115197","-0.00436632","97.412"
"1.19106","0.830659","35.713","0.0114396","0.0111264","0.0115504","-0.00437331","97.2621"
"1.19458","0.83402","35.813","0.0114618","0.011188","0.0115872","-0.00441394","97.6112"
"1.19741","0.836122","35.913","0.0115331","0.0112339","0.0116034","-0.00441624","97.4057"
"1.20059","0.835821","36.013","0.0115635","0.011265","0.0116845","-0.00445248","97.4186"
"1.20352","0.839071","36.113","0.0116002","0.0113251","0.0116845","-0.00445248","97.6285"
"1.20688","0.841011","36.213","0.011611","0.0113318","0.0117555","-0.00442688","97.5954"
"1.20991","0.841181","36.313","0.0116722","0.011366","0.0117743","-0.00441964","97.3767"
"1.21328","0.844659","36.413","0.01169","0.0113788","0.0118178","-0.0044575","97.3379"
"1.21641","0.84375","36.513","0.0117077","0.0114333","0.0118416","-0.00445805","97.6562"
"1.22007","0.845363","36.613","0.0117246","0.0114443","0.0118551","-0.00446432","97.6093"
"1.22373","0.847789","36.713","0.01176","0.0114573","0.0118989","-0.00451058","97.426"
"1.22739","0.851288","36.813","0.0117689","0.0114742","0.0118928","-0.00453307","97.4959"
"1.23042","0.850841","36.913","0.0117934","0.0115186","0.0119615","-0.00455181","97.6699"
"1.23394","0.854651","37.013","0.0118808","0.0115716","0.0119815","-0.00454858","97.3975"
"1.23716","0.856589","37.113","0.0118981","0.0115862","0.0120512","-0.00456729","97.3786"
"1.24058","0.858442","37.213","0.0119491","0.0116001","0.0120804","-0.00457642","97.0793"
"1.24341","0.859923","37.313","0.0119739","0.011621","0.0121029","-0.00458197","97.0528"
"1.24668","0.862855","37.413","0.0120118","0.0116591","0.0121567","-0.00461756","97.0637"
"1.2499","0.862461","37.513","0.0120377","0.0116984","0.0121642","-0.00462439","97.1814"
"1.25356","0.864598","37.613","0.0120747","0.0117043","0.0122047","-0.00465071","96.9324"
"1.25698","0.865041","37.713","0.0120929","0.0117423","0.0122319","-0.00462346","97.1008"
"1.2605","0.866683","37.813","0.0121433","0.011663","0.0122902","-0.00453796","96.0447"
"1.26353","0.866872","37.913","0.012157","0.0116791","0.0123297","-0.00456514","96.0689"
"1.26704","0.872923","38.013","0.0122011","0.011734","0.0123308","-0.00460971","96.1717"
"1.27036","0.873116","38.113","0.0122223","0.0117412","0.0123641","-0.00458474","96.0638"
"1.27402","0.874978","38.213","0.0122374","0.0118003","0.0123905","-0.00459233","96.4282"
"1.2771","0.875606","38.313","0.012248","0.0118075","0.0123848","-0.00464157","96.4035"
"1.28037","0.878156","38.413","0.0122528","0.0118151","0.0123668","-0.00465866","96.4278"
"1.2834","0.879009","38.513","0.0122838","0.0118692","0.012409","-0.00468419","96.6248"
"1.28691","0.883181","38.613","0.012285","0.0118756","0.0124368","-0.00466576","96.6675"
"1.29038","0.882498","38.713","0.0123117","0.011918","0.0124529","-0.00470012","96.8022"
"1.29385","0.885619","38.813","0.0123418","0.0119463","0.0124925","-0.00467811","96.7954"
"1.29663","0.885949","38.913","0.012377","0.0119965","0.0125458","-0.00470283","96.9257"
"1.2999","0.889082","39.013","0.012409","0.0120007","0.0125775","-0.004773","96.7096"
"1.30337","0.891744","39.113","0.0124276","0.0120308","0.0125865","-0.00476863","96.8071"
"1.30703","0.89044","39.213","0.0124446","0.0120981","0.0126253","-0.0048124","97.2157"
"1.31035","0.891306","39.313","0.0125035","0.0121261","0.012692","-0.00478199","96.9816"
"1.31396","0.892416","39.413","0.0125799","0.0121645","0.0127182","-0.00478272","96.6979"
"1.31724","0.898779","39.513","0.0125806","0.0121618","0.0127773","-0.00481949","96.6711"
"1.32085","0.899118","39.613","0.0126976","0.0122229","0.0128044","-0.00487476","96.2615"
"1.32402","0.900774","39.713","0.0127207","0.0122403","0.0128938","-0.00490532","96.2235"
"1.32734","0.904627","39.813","0.0127766","0.0122651","0.012917","-0.00491031","95.9966"
"1.33022","0.901559","39.913","0.0128072","0.0123106","0.0130101","-0.00492844","96.1225"
"1.33354","0.904108","40.013","0.0128795","0.0123473","0.0130509","-0.00494414","95.8679"
"1.33667","0.905356","40.113","0.0128696","0.012355","0.0130599","-0.00496554","96.0014"
"1.34019","0.909383","40.213","0.0129295","0.0124207","0.0131146","-0.00498375","96.0648"
"1.34346","0.910106","40.313","0.0129403","0.0124685","0.0131218","-0.00499198","96.354"
"1.34707","0.913185","40.413","0.0129783","0.0124914","0.013194","-0.0050085","96.2484"
"1.35049","0.910054","40.513","0.0130375","0.012558","0.0131931","-0.00487417","96.3221"
"1.35435","0.913777","40.613","0.0130331","0.0125728","0.0132015","-0.00490011","96.4682"
"1.35776","0.917102","40.713","0.0130083","0.012565","0.0132047","-0.00493245","96.5922"
"1.36099","0.917677","40.813","0.0130331","0.0125911","0.0132215","-0.00492621","96.6086"
"1.36362","0.920117","40.913","0.013028","0.0126222","0.0132184","-0.0049558","96.8852"
"1.3668","0.923255","41.013","0.013033","0.0126413","0.0132493","-0.00496087","96.9946"
"1.36992","0.923761","41.113","0.0130319","0.0126622","0.0132664","-0.00502096","97.1631"
"1.37339","0.925381","41.213","0.0130586","0.0126547","0.0132763","-0.00504197","96.907"
"1.37642","0.927886","41.313","0.0130485","0.0126822","0.0132808","-0.00507544","97.1928"
"1.37983","0.926892","41.413","0.0130709","0.0126882","0.0132898","-0.00507668","97.0721"
"1.3833","0.93027","41.513","0.0131049","0.0127391","0.0133126","-0.00508292","97.2087"
"1.38721","0.932275","41.613","0.0131141","0.0127586","0.0133642","-0.00512183","97.2892"
"1.39087","0.936471","41.713","0.0131755","0.0127755","0.0133729","-0.0051144","96.9641"
"1.39448","0.935209","41.813","0.0132491","0.0127986","0.013454","-0.00516304","96.5998"
"1.39736","0.937229","41.913","0.013293","0.0128399","0.0134973","-0.00520113","96.5914"
"1.40059","0.942344","42.013","0.0133351","0.0128477","0.0135644","-0.00524182","96.345"
"1.40352","0.938704","42.113","0.0133504","0.0128856","0.0136044","-0.00522839","96.5185"
"1.40688","0.945164","42.213","0.0134457","0.0129393","0.0136263","-0.0052536","96.2337"
"1.40996","0.943671","42.313","0.0134896","0.0129484","0.0137499","-0.00527293","95.988"
"1.41338","0.946338","42.413","0.0135649","0.013026","0.0137859","-0.00530037","96.0272"
"1.4165","0.948271","42.513","0.0136083","0.0130933","0.013856","-0.00532057","96.2155"
"1.42017","0.948807","42.613","0.0136199","0.0131209","0.0138898","-0.00532885","96.3362"
"1.42388","0.950924","42.713","0.0136735","0.0131701","0.0139356","-0.00537008","96.3184"
"1.42754","0.955401","42.813","0.0137129","0.0131757","0.0139422","-0.00537895","96.0825"
"1.43062","0.952599","42.913","0.0137539","0.0132956","0.0139711","-0.00539149","96.6679"
"1.43408","0.957588","43.013","0.0137798","0.0133281","0.0140336","-0.00544959","96.722"
"1.4373","0.956436","43.113","0.0137877","0.0133759","0.0140568","-0.00543863","97.0133"
"1.44067","0.958257","43.213","0.0137986","0.0133777","0.0140691","-0.00534295","96.9497"
"1.44351","0.960966","43.313","0.0138099","0.0134428","0.0140749","-0.00536926","97.3418"
"1.44678","0.960883","43.413","0.0138306","0.0134499","0.0140676","-0.00537221","97.2474"
"1.45","0.963721","43.513","0.0138087","0.013475","0.0141304","-0.00540651","97.5834"
"1.45366","0.962125","43.613","0.0138033","0.0134586","0.0141176","-0.00539298","97.5028"
"1.45698","0.964979","43.713","0.0138309","0.0134654","0.0141051","-0.00542361","97.3574"
"1.46045","0.969948","43.813","0.0138464","0.013481","0.0140994","-0.00542633","97.361"
"1.46348","0.966468","43.913","0.0138301","0.0134621","0.0141155","-0.00546726","97.3391"
"1.46694","0.972365","44.013","0.0138629","0.0135077","0.0141239","-0.00553056","97.4378"
"1.47036","0.973887","44.113","0.0138805","0.0135016","0.0141759","-0.00553865","97.2703"
"1.47397","0.976169","44.213","0.0139067","0.0134983","0.0142042","-0.00555197","97.0633"
"1.4771","0.977207","44.313","0.0139545","0.0135088","0.014223","-0.00557109","96.806"
"1.48042","0.978868","44.413","0.0140157","0.0135371","0.0143025","-0.00562027","96.5853"
"1.48345","0.981908","44.513","0.0140549","0.0135757","0.0143241","-0.00561932","96.5905"
"1.48701","0.981566","44.613","0.0140719","0.0136119","0.0142596","-0.00563584","96.7311"
"1.49043","0.982088","44.713","0.0141746","0.0136601","0.0142901","-0.00567617","96.3703"
"1.4939","0.98584","44.813","0.0142041","0.0137011","0.0143967","-0.00569181","96.4588"
"1.49673","0.989075","44.913","0.0142274","0.013732","0.0144019","-0.00569999","96.518"
"1.50005","0.987898","45.013","0.014294","0.0138085","0.0144849","-0.00568263","96.6035"
"1.50342","0.989527","45.113","0.0143348","0.0138651","0.0145644","-0.0057297","96.7234"
"1.50703","0.990528","45.213","0.0143929","0.0139499","0.0145922","-0.00573008","96.9221"
"1.51035","0.992087","45.313","0.0144101","0.0139493","0.014632","-0.00577352","96.8022"
"1.51396","0.994808","45.413","0.0143886","0.0140984","0.0146904","-0.00578693","97.9831"
"1.51724","0.993841","45.513","0.014416","0.0141136","0.0147364","-0.00577846","97.9023"
"1.52075","0.995499","45.613","0.0144534","0.0141396","0.0147816","-0.00578731","97.8289"
"1.52393","0.999626","45.713","0.0144486","0.0141858","0.0148056","-0.00581165","98.1811"
"1.52725","0.999603","45.813","0.0144694","0.0141913","0.014812","-0.00579207","98.078"
"1.53008","1.00285","45.913","0.0145076","0.0142439","0.0148168","-0.00581026","98.1823"
"1.53335","1.0024","46.013","0.0144935","0.0142402","0.014819","-0.00578629","98.2523"
"1.53643","1.00314","46.113","0.0144843","0.014259","0.0148407","-0.00578944","98.4445"
"1.53989","1.00647","46.213","0.0144775","0.0142746","0.0148776","-0.00580277","98.5985"
"1.54316","1.01056","46.313","0.0145416","0.0142575","0.0148706","-0.00580465","98.0463"
"1.54673","1.00966","46.413","0.0145227","0.0142988","0.0149186","-0.0058302","98.4583"
"1.55015","1.01362","46.513","0.0145383","0.0142748","0.0149077","-0.00582891","98.1875"
"1.554","1.01161","46.613","0.0145873","0.0142673","0.0149067","-0.00583648","97.8063"
"1.55747","1.016","46.713","0.0146047","0.0142773","0.0149485","-0.00583449","97.7583"
"1.56079","1.01733","46.813","0.0146189","0.0143112","0.0149389","-0.00590758","97.8952"
"1.56348","1.01679","46.913","0.0146506","0.0143226","0.0149955","-0.00593013","97.7612"
"1.5666","1.01895","47.013","0.0146546","0.0143227","0.0150038","-0.00593492","97.7352"
"1.56978","1.0191","47.113","0.0146991","0.0143561","0.0150381","-0.0059134","97.6665"
"1.57329","1.02202","47.213","0.0147225","0.0143954","0.0150927","-0.00592241","97.7782"
"1.57637","1.02286","47.313","0.0147935","0.014471","0.0151727","-0.00593245","97.82"
"1.57974","1.02345","47.413","0.0148267","0.0144922","0.0152063","-0.00592555","97.7439"
"1.5832","1.02435","47.513","0.0148493","0.0145578","0.0152444","-0.00592469","98.0369"
"1.58706","1.0279","47.613","0.0148923","0.0145885","0.0152989","-0.00591766","97.96"
"1.59077","1.02355","47.713","0.0149525","0.014665","0.0153501","-0.0059451","98.0772"
"1.59438","1.02805","47.813","0.0150157","0.0147343","0.0153885","-0.00594898","98.126"
"1.59722","1.03128","47.913","0.0150279","0.014755","0.0154523","-0.00594809","98.184"
"1.60044","1.03168","48.013","0.0150878","0.0148183","0.0154775","-0.00593161","98.2138"
"1.60347","1.02996","48.113","0.0151036","0.0148345","0.0155215","-0.00594079","98.2183"
"1.60684","1.03139","48.213","0.015124","0.0148424","0.0155428","-0.0059546","98.1381"
"1.60991","1.02993","48.313","0.0151466","0.0148077","0.015588","-0.00596637","97.7625"
"1.61328","1.03471","48.413","0.0151481","0.0148274","0.0155939","-0.00579074","97.8829"
"1.61646","1.03515","48.513","0.0151642","0.0148364","0.0155994","-0.00582076","97.8383"
"1.62012","1.03661","48.613","0.0151817","0.0148348","0.0156455","-0.00587822","97.715"
"1.62383","1.03626","48.713","0.0151667","0.0148648","0.0156556","-0.00588446","98.0095"
"1.62749","1.03783","48.813","0.01515","0.0148685","0.0157162","-0.00592739","98.1419"
"1.63052","1.03858","48.913","0.015147","0.0148554","0.0157331","-0.00595264","98.0749"
"1.63403","1.0396","49.013","0.0151862","0.0148272","0.0157912","-0.0059976","97.636"
"1.6373","1.04156","49.113","0.0151995","0.0148538","0.015824","-0.0060113","97.7256"
"1.64062","1.04379","49.213","0.0152213","0.0148572","0.0158709","-0.00605115","97.608"
"1.64351","1.04233","49.313","0.0152109","0.0148656","0.0159251","-0.00612694","97.7299"
"1.64678","1.04219","49.413","0.0151145","0.0148901","0.015968","-0.00613603","98.5153"
"1.65","1.0442","49.513","0.0151376","0.0149502","0.0158812","-0.00609746","98.762"
"1.65371","1.04352","49.613","0.0151187","0.0149834","0.0158993","-0.00608531","99.1051"
"1.65708","1.04237","49.713","0.0151534","0.015044","0.0159463","-0.00607518","99.2781"
"1.6606","1.04068","49.813","0.0151769","0.0150905","0.0159662","-0.00602021","99.4307"
"1.66372","1.03601","49.913","0.0152818","0.0150309","0.016035","-0.00609098","98.3582"
"1.66719","1.028375","50.013","0.0152398","0.0150486","0.0161495","-0.0061781","98.7454"
"1.67061","0.664463","50.113","0.0149972","0.0150807","0.0161365","-0.00616546","100.557"
"1.67441","0.494025","50.213","0.0147277","0.0148825","0.0160637","-0.00597462","101.051"
"1.67754","0.482876","50.313","NaN","NaN","NaN","NaN","NaN"
"1.68091","0.477601","50.413","NaN","0.0135487","NaN","NaN","NaN"
"1.68394","0.472127","50.513","NaN","0.0134345","NaN","NaN","NaN"
"1.68755","0.469244","50.613","NaN","0.0128827","NaN","NaN","NaN"
"1.69092","0.464207","50.713","NaN","0.0130548","NaN","NaN","NaN"
"1.69424","0.462195","50.813","NaN","0.0130018","NaN","NaN","NaN"
"1.69702","0.460919","50.913","NaN","0.0129175","NaN","NaN","NaN"
"1.70034","0.459426","51.013","NaN","0.0128075","NaN","NaN","NaN"
"1.70366","0.457935","51.113","NaN","0.012872","NaN","NaN","NaN"
"1.70728","0.456646","51.213","NaN","0.0129061","NaN","NaN","NaN"
"1.71055","0.454933","51.313","NaN","0.0127859","NaN","NaN","NaN"
"1.71416","0.45683","51.413","NaN","0.0128072","NaN","NaN","NaN"
"1.71738","0.454804","51.513","NaN","0.0128582","NaN","NaN","NaN"
"1.72095","0.45363","51.613","NaN","0.0126186","NaN","NaN","NaN"
"1.72417","0.453836","51.713","NaN","0.0126165","NaN","NaN","NaN"
"1.72749","0.451644","51.813","NaN","0.0126202","NaN","NaN","NaN"
"1.73032","0.447649","51.913","NaN","0.012553","NaN","NaN","NaN"
"1.73359","0.448974","52.013","NaN","0.0125451","NaN","NaN","NaN"
"1.73662","0.446981","52.113","NaN","0.0124824","NaN","NaN","NaN"
"1.74009","0.448678","52.213","NaN","0.0124367","NaN","NaN","NaN"
"1.74341","0.446434","52.313","NaN","0.012479","NaN","NaN","NaN"
"1.74702","0.447571","52.413","NaN","0.0124206","NaN","NaN","NaN"
"1.75039","0.44543","52.513","NaN","0.0124366","NaN","NaN","NaN"
"1.75425","0.44741","52.613","NaN","0.0124309","NaN","NaN","NaN"
"1.75771","0.443449","52.713","NaN","0.0124286","NaN","NaN","NaN"
"1.76104","0.441016","52.813","NaN","0.0124063","NaN","NaN","NaN"
"1.76372","0.443806","52.913","NaN","0.0123951","NaN","NaN","NaN"
"1.76689","0.440197","53.013","NaN","0.0124031","NaN","NaN","NaN"
"1.77007","0.441048","53.113","NaN","0.0123813","NaN","NaN","NaN"
"1.77358","0.441927","53.213","NaN","0.012333","NaN","NaN","NaN"
"1.77656","0.436374","53.313","NaN","0.0123216","NaN","NaN","NaN"
"1.77998","0.437651","53.413","NaN","0.012325","NaN","NaN","NaN"
"1.7834","0.43629","53.513","NaN","0.012318","NaN","NaN","NaN"
"1.78726","0.432772","53.613","NaN","0.0122948","NaN","NaN","NaN"
"1.78911","-0.043029","53.662","NaN","0.0122948","NaN","NaN","NaN"