File: Raw_Data./DSC/Crystallisation Speed/Crystallisation time at Temperature T/crystal 80 degs.csv
Time,Unsubtracted Heat Flow,Baseline Heat Flow,Program Temperature,Sample Temperature,Approx. Gas Flow,Heat Flow Calibration,Uncorrected Heat Flow,
0,9.261655,0.190191,30.02,30.058,0,1.056615,9.261655,
0.013333,11.396,2.655063,31.295,30.187,0,1.056615,11.396,
0.026667,11.7462,1.245327,32.575,30.979,0,1.056615,11.7462,
0.04,6.14855,-5.279167,33.85,32.166,0,1.056615,6.14855,
0.053333,-0.508338,-10.90596,35.129,33.462,0,1.056615,-0.508338,
0.066667,-3.4732,-12.71795,36.404,34.75,0,1.056615,-3.4732,
0.08,-2.563454,-11.81391,37.683,36.033,0,1.056615,-2.563454,
0.093333,0.438073,-10.0287,38.962,37.32,0,1.056615,0.438073,
0.106667,4.002459,-8.415307,40.237,38.6,0,1.056615,4.002459,
0.12,7.372744,-7.270253,41.516,39.883,0,1.056615,7.372744,
0.133333,10.3262,-6.534848,42.795,41.162,0,1.056615,10.3262,
0.146667,12.87211,-6.071945,44.07,42.441,0,1.056615,12.87211,
0.16,15.07547,-5.771338,45.35,43.72,0,1.056615,15.07547,
0.173333,16.9981,-5.564664,46.625,45,0,1.056615,16.9981,
0.186667,18.6858,-5.410293,47.904,46.283,0,1.056615,18.6858,
0.2,20.174,-5.285507,49.183,47.562,0,1.056615,20.174,
0.213333,21.4883,-5.180268,50.458,48.845,0,1.056615,21.4883,
0.226667,22.655,-5.08887,51.737,50.125,0,1.056615,22.655,
0.24,23.6957,-5.008145,53.012,51.395,0,1.056615,23.6957,
0.253333,24.6305,-4.933231,54.291,52.683,0,1.056615,24.6305,
0.266667,25.47,-4.863072,55.57,53.962,0,1.056615,25.47,
0.28,26.2297,-4.794814,56.845,55.241,0,1.056615,26.2297,
0.293333,26.9257,-4.727614,58.125,56.52,0,1.056615,26.9257,
0.306667,27.5685,-4.661787,59.4,57.804,0,1.056615,27.5685,
0.32,28.1513,-4.595642,60.679,59.079,0,1.056615,28.1513,
0.333333,28.6435,-4.527596,61.958,60.362,0,1.056615,28.6435,
0.346667,29.0653,-4.460184,63.233,61.637,0,1.056615,29.0653,
0.36,29.4514,-4.394146,64.512,62.92,0,1.056615,29.4514,
0.373333,29.7867,-4.328107,65.791,64.2,0,1.056615,29.7867,
0.386667,30.0623,-4.261224,67.066,65.487,0,1.056615,30.0623,
0.4,30.2834,-4.194657,68.345,66.762,0,1.056615,30.2834,
0.413333,30.4819,-4.127456,69.62,68.05,0,1.056615,30.4819,
0.426667,30.7071,-4.057508,70.9,69.325,0,1.056615,30.7071,
0.44,30.9706,-3.987138,72.179,70.608,0,1.056615,30.9706,
0.453333,31.287,-3.912329,73.454,71.887,0,1.056615,31.287,
0.466667,31.6289,-3.834245,74.733,73.175,0,1.056615,31.6289,
0.48,32.0164,-3.755316,76.008,74.45,0,1.056615,32.0164,
0.493333,32.4904,-3.674274,77.287,75.737,0,1.056615,32.4904,
0.506667,32.9296,-3.59133,78.566,77.012,0,1.056615,32.9296,
0.52,33.3545,-3.50828,79.841,78.295,0,1.056615,33.3545,
0.533333,33.99,-3.417833,81.12,79.575,0,1.056615,33.99,
0.546667,34.8873,-3.319357,82.395,80.854,0,1.056615,34.8873,
0.56,35.8318,-3.217288,83.675,82.133,0,1.056615,35.8318,
0.573333,36.7058,-3.118072,84.954,83.408,0,1.056615,36.7058,
0.586667,37.6322,-3.024561,86.229,84.691,0,1.056615,37.6322,
0.6,38.7775,-2.937073,87.508,85.97,0,1.056615,38.7775,
0.613333,39.66333,-2.854023,88.787,87.245,0,1.056615,39.66333,
0.626667,40.2183,-2.770234,90.062,88.525,0,1.056615,40.2183,
0.64,40.5638,-2.687818,91.341,89.804,0,1.056615,40.5638,
0.653333,40.7863,-2.606353,92.616,91.079,0,1.056615,40.7863,
0.666667,40.9338,-2.523831,93.895,92.362,0,1.056615,40.9338,
0.68,41.0413,-2.438245,95.175,93.641,0,1.056615,41.0413,
0.693333,41.1252,-2.346003,96.45,94.92,0,1.056615,41.1252,
0.706667,41.193,-2.254394,97.729,96.2,0,1.056615,41.193,
0.72,41.2472,-2.164688,99.004,97.479,0,1.056615,41.2472,
0.733333,41.2883,-2.073185,100.283,98.754,0,1.056615,41.2883,
0.746667,41.3194,-1.984218,101.562,100.033,0,1.056615,41.3194,
0.76,41.343,-1.893983,102.837,101.312,0,1.056615,41.343,
0.773333,41.35645,-1.802163,104.116,102.591,0,1.056615,41.35645,
0.786667,41.3648,-1.708758,105.391,103.875,0,1.056615,41.3648,
0.8,41.372,-1.612923,106.67,105.154,0,1.056615,41.372,
0.813333,41.3847,-1.511171,107.95,106.425,0,1.056615,41.3847,
0.826667,41.3985,-1.4072,109.225,107.704,0,1.056615,41.3985,
0.84,41.4204,-1.307244,110.504,108.979,0,1.056615,41.4204,
0.853333,41.449,-1.212889,111.779,110.262,0,1.056615,41.449,
0.866667,41.4828,-1.120963,113.058,111.541,0,1.056615,41.4828,
0.88,41.5185,-1.02629,114.337,112.825,0,1.056615,41.5185,
0.893333,41.5558,-0.932252,115.612,114.1,0,1.056615,41.5558,
0.906667,41.5973,-0.84096,116.891,115.379,0,1.056615,41.5973,
0.92,41.6427,-0.74111,118.17,116.662,0,1.056615,41.6427,
0.933333,41.6923,-0.636082,119.445,117.941,0,1.056615,41.6923,
0.946667,41.7427,-0.524926,120.725,119.216,0,1.056615,41.7427,
0.96,41.7993,-0.409121,122,120.504,0,1.056615,41.7993,
0.973333,41.8698,-0.285709,123.279,121.783,0,1.056615,41.8698,
0.986667,41.9379,-0.181315,124.558,123.058,0,1.056615,41.9379,
1,41.9832,-0.09742,125.833,124.337,0,1.056615,41.9832,
1.013333,42.0295,-0.010038,127.112,125.616,0,1.056615,42.0295,
1.026667,42.0901,0.088227,128.387,126.891,0,1.056615,42.0901,
1.04,42.16381,0.196425,129.666,128.175,0,1.056615,42.16381,
1.053333,42.2499,0.305362,130.945,129.458,0,1.056615,42.2499,
1.066667,42.3413,0.413348,132.22,130.737,0,1.056615,42.3413,
1.08,42.4431,0.519749,133.5,132.02,0,1.056615,42.4431,
1.093333,42.5567,0.626679,134.775,133.3,0,1.056615,42.5567,
1.106667,42.6829,0.737306,136.054,134.579,0,1.056615,42.6829,
1.12,42.816,0.845398,137.333,135.858,0,1.056615,42.816,
1.133333,42.9517,0.944931,138.608,137.137,0,1.056615,42.9517,
1.146667,43.0943,1.043936,139.887,138.416,0,1.056615,43.0943,
1.16,43.2484,1.150865,141.166,139.704,0,1.056615,43.2484,
1.173333,43.4107,1.258006,142.441,140.983,0,1.056615,43.4107,
1.186667,43.5832,1.365992,143.72,142.266,0,1.056615,43.5832,
1.2,43.7735,1.478839,144.995,143.541,0,1.056615,43.7735,
1.213333,43.9826,1.595383,146.275,144.82,0,1.056615,43.9826,
1.226667,44.1999,1.720592,147.554,146.095,0,1.056615,44.1999,
1.24,44.4214,1.844111,148.829,147.379,0,1.056615,44.4214,
1.253333,44.651,1.964248,150.108,148.662,0,1.056615,44.651,
1.266667,44.89516,2.083011,151.383,149.937,0,1.056615,44.89516,
1.28,45.1586,2.201564,152.662,151.22,0,1.056615,45.1586,
1.293333,45.4426,2.312931,153.941,152.491,0,1.056615,45.4426,
1.306667,45.754,2.430426,155.216,153.77,0,1.056615,45.754,
1.32,46.0973,2.564722,156.495,155.041,0,1.056615,46.0973,
1.333333,46.4737,2.694686,157.77,156.325,0,1.056615,46.4737,
1.346667,46.8761,2.815246,159.05,157.604,0,1.056615,46.8761,
1.36,47.2884,2.933587,160.329,158.887,0,1.056615,47.2884,
1.373333,47.6875,3.050343,161.604,160.166,0,1.056615,47.6875,
1.386667,48.075,3.173755,162.883,161.445,0,1.056615,48.075,
1.4,48.4393,3.306466,164.162,162.725,0,1.056615,48.4393,
1.413333,48.7519,3.44277,165.437,164,0,1.056615,48.7519,
1.426667,48.9956,3.585307,166.716,165.279,0,1.056615,48.9956,
1.44,49.1653,3.724886,167.991,166.562,0,1.056615,49.1653,
1.453333,49.269,3.859287,169.27,167.841,0,1.056615,49.269,
1.466667,49.33,4.033734,170.55,169.12,0,1.056615,49.33,
1.48,49.36739,4.240303,171.825,170.404,0,1.056615,49.36739,
1.493333,49.3987,4.415067,173.104,171.675,0,1.056615,49.3987,
1.506667,49.4341,4.555702,174.379,172.95,0,1.056615,49.4341,
1.52,49.4781,4.671613,175.658,174.229,0,1.056615,49.4781,
1.533333,49.5351,4.781078,176.937,175.512,0,1.056615,49.5351,
1.546667,49.6113,4.894982,178.212,176.787,0,1.056615,49.6113,
1.56,49.70519,5.011843,179.491,178.066,0,1.056615,49.70519,
1.573333,49.8115,5.133565,180.766,179.341,0,1.056615,49.8115,
1.586667,49.9201,5.264691,182.045,180.62,0,1.056615,49.9201,
1.6,50.0224,5.398353,183.325,181.895,0,1.056615,50.0224,
1.613333,50.1147,5.531804,184.6,183.175,0,1.056615,50.1147,
1.626667,50.1925,5.668952,185.879,184.454,0,1.056615,50.1925,
1.64,50.2498,5.812124,187.158,185.737,0,1.056615,50.2498,
1.653333,50.2921,5.958253,188.433,187.012,0,1.056615,50.2921,
1.666667,50.3188,6.097198,189.712,188.291,0,1.056615,50.3188,
1.68,50.3053,6.23403,190.987,189.575,0,1.056615,50.3053,
1.693333,50.2605,6.372764,192.266,190.858,0,1.056615,50.2605,
1.706667,50.1862,6.513822,193.545,192.129,0,1.056615,50.1862,
1.72,50.0821,6.658789,194.82,193.412,0,1.056615,50.0821,
1.733333,49.9647,6.806399,196.1,194.695,0,1.056615,49.9647,
1.746667,49.8552,6.954747,197.375,195.97,0,1.056615,49.8552,
1.76,49.7422,7.104153,198.654,197.254,0,1.056615,49.7422,
1.773333,49.6236,7.255249,199.933,198.533,0,1.056615,49.6236,
1.786667,49.5131,7.406979,201.208,199.812,0,1.056615,49.5131,
1.8,49.3521,7.559554,202.487,201.095,0,1.056615,49.3521,
1.813333,49.1942,7.714454,203.762,202.37,0,1.056615,49.1942,
1.826667,49.6382,7.866289,205.041,203.65,0,1.056615,49.6382,
1.84,50.4206,8.018865,206.32,204.933,0,1.056615,50.4206,
1.853333,51.08608,8.179364,207.595,206.212,0,1.056615,51.08608,
1.866667,51.5826,8.345042,208.875,207.491,0,1.056615,51.5826,
1.88,51.9632,8.516319,210.15,208.77,0,1.056615,51.9632,
1.893333,52.2708,8.686223,211.429,210.05,0,1.056615,52.2708,
1.906667,52.5478,8.851794,212.708,211.325,0,1.056615,52.5478,
1.92,52.8116,9.014407,213.983,212.6,0,1.056615,52.8116,
1.933333,53.0686,9.177866,215.262,213.883,0,1.056615,53.0686,
1.946667,53.3244,9.343226,216.541,215.154,0,1.056615,53.3244,
1.96,53.5749,9.5051,217.816,216.437,0,1.056615,53.5749,
1.973333,53.8248,9.668241,219.095,217.716,0,1.056615,53.8248,
1.986667,54.0741,9.83339,220.37,218.991,0,1.056615,54.0741,
2,54.3223,10.00023,221.65,220.266,0,1.056615,54.3223,
2.013333,54.5668,10.16802,222.929,221.541,0,1.056615,54.5668,
2.026667,54.8089,10.3355,224.204,222.82,0,1.056615,54.8089,
2.055,50.6855,18.4896,225,225,0,1.056615,50.6855,
2.108333,71.0126,36.6002,225,225.116,0,1.056615,71.0126,
2.161667,60.5211,30.9971,225,225.075,0,1.056615,60.5211,
2.215,48.4679,27.99724,225,225.058,0,1.056615,48.4679,
2.268333,41.1498,27.491,225,225.058,0,1.056615,41.1498,
2.321667,36.5435,27.40374,225,225.054,0,1.056615,36.5435,
2.375,33.6159,27.3893,225,225.058,0,1.056615,33.6159,
2.428333,31.7665,27.3863,225,225.058,0,1.056615,31.7665,
2.481667,30.5749,27.3841,225,225.062,0,1.056615,30.5749,
2.535,29.8074,27.3832,225,225.062,0,1.056615,29.8074,
2.588333,29.3139,27.3811,225,225.062,0,1.056615,29.3139,
2.641667,28.9929,27.3798,225,225.062,0,1.056615,28.9929,
2.695,28.7826,27.379,225,225.062,0,1.056615,28.7826,
2.748333,28.6446,27.3773,225,225.062,0,1.056615,28.6446,
2.801667,28.5522,27.3761,225,225.066,0,1.056615,28.5522,
2.855,28.4916,27.3737,225,225.062,0,1.056615,28.4916,
2.908333,28.4503,27.374,225,225.062,0,1.056615,28.4503,
2.961667,28.41883,27.3713,225,225.066,0,1.056615,28.41883,
3.015,28.3958,27.3697,225,225.066,0,1.056615,28.3958,
3.068333,28.3792,27.3714,225,225.066,0,1.056615,28.3792,
3.121667,28.3675,27.37,225,225.066,0,1.056615,28.3675,
3.175,28.35501,27.3692,225,225.066,0,1.056615,28.35501,
3.228333,28.3466,27.3665,225,225.066,0,1.056615,28.3466,
3.281667,28.337,27.3657,225,225.07,0,1.056615,28.337,
3.335,28.3303,27.3667,225,225.066,0,1.056615,28.3303,
3.388333,28.3233,27.3645,225,225.066,0,1.056615,28.3233,
3.441667,28.318,27.3637,225,225.066,0,1.056615,28.318,
3.495,28.31264,27.3619,225,225.066,0,1.056615,28.31264,
3.548333,28.3076,27.3609,225,225.066,0,1.056615,28.3076,
3.601667,28.3061,27.3628,225,225.07,0,1.056615,28.3061,
3.655,28.3037,27.36,225,225.066,0,1.056615,28.3037,
3.708333,28.2993,27.3598,225,225.066,0,1.056615,28.2993,
3.761667,28.2929,27.3578,225,225.07,0,1.056615,28.2929,
3.815,28.29193,27.3577,225,225.07,0,1.056615,28.29193,
3.868333,28.2893,27.3582,225,225.066,0,1.056615,28.2893,
3.921667,28.2869,27.35672,225,225.07,0,1.056615,28.2869,
3.975,28.2843,27.3571,225,225.066,0,1.056615,28.2843,
4.028333,28.2791,27.35672,225,225.07,0,1.056615,28.2791,
4.081667,28.2783,27.3537,225,225.066,0,1.056615,28.2783,
4.135,28.2756,27.3529,225,225.07,0,1.056615,28.2756,
4.188333,28.2742,27.3533,225,225.07,0,1.056615,28.2742,
4.241667,28.27196,27.3516,225,225.07,0,1.056615,28.27196,
4.295,28.2696,27.3508,225,225.07,0,1.056615,28.2696,
4.348333,28.2666,27.3502,225,225.07,0,1.056615,28.2666,
4.401667,28.2667,27.3503,225,225.07,0,1.056615,28.2667,
4.455,28.2631,27.3472,225,225.07,0,1.056615,28.2631,
4.508333,28.2628,27.3481,225,225.066,0,1.056615,28.2628,
4.561667,28.2593,27.3483,225,225.075,0,1.056615,28.2593,
4.615,28.256,27.3472,225,225.07,0,1.056615,28.256,
4.668333,28.2549,27.3458,225,225.075,0,1.056615,28.2549,
4.721667,28.2529,27.34478,225,225.07,0,1.056615,28.2529,
4.775,28.2509,27.3449,225,225.066,0,1.056615,28.2509,
4.828333,28.2476,27.3443,225,225.075,0,1.056615,28.2476,
4.881667,28.2467,27.344,225,225.07,0,1.056615,28.2467,
4.935,28.2448,27.3433,225,225.075,0,1.056615,28.2448,
4.988333,28.2409,27.3425,225,225.075,0,1.056615,28.2409,
5.041667,28.2411,27.3437,225,225.075,0,1.056615,28.2411,
5.095,28.237,27.3421,225,225.07,0,1.056615,28.237,
5.148333,28.2321,27.3409,225,225.07,0,1.056615,28.2321,
5.201667,28.2327,27.3443,225,225.075,0,1.056615,28.2327,
5.255,28.2297,27.3419,225,225.07,0,1.056615,28.2297,
5.308333,28.2285,27.34235,225,225.07,0,1.056615,28.2285,
5.361667,28.2261,27.3401,225,225.075,0,1.056615,28.2261,
5.415,28.2242,27.34235,225,225.07,0,1.056615,28.2242,
5.468333,28.2236,27.3415,225,225.075,0,1.056615,28.2236,
5.521667,28.2205,27.3401,225,225.07,0,1.056615,28.2205,
5.575,28.2202,27.3398,225,225.075,0,1.056615,28.2202,
5.628333,28.2151,27.3388,225,225.075,0,1.056615,28.2151,
5.681667,28.2144,27.3385,225,225.075,0,1.056615,28.2144,
5.735,28.2111,27.3393,225,225.075,0,1.056615,28.2111,
5.788333,28.2112,27.3364,225,225.075,0,1.056615,28.2112,
5.841667,28.2099,27.3374,225,225.075,0,1.056615,28.2099,
5.895,28.2082,27.3378,225,225.075,0,1.056615,28.2082,
5.948333,28.2069,27.3385,225,225.075,0,1.056615,28.2069,
6.001667,28.2039,27.33749,225,225.075,0,1.056615,28.2039,
6.055,28.2024,27.33675,225,225.079,0,1.056615,28.2024,
6.108333,28.2023,27.3355,225,225.075,0,1.056615,28.2023,
6.161667,28.1993,27.3365,225,225.075,0,1.056615,28.1993,
6.215,28.1976,27.3357,225,225.075,0,1.056615,28.1976,
6.268333,28.1967,27.3362,225,225.079,0,1.056615,28.1967,
6.321667,28.195,27.3326,225,225.075,0,1.056615,28.195,
6.375,28.1936,27.3323,225,225.075,0,1.056615,28.1936,
6.428333,28.19039,27.332,225,225.075,0,1.056615,28.19039,
6.481667,28.1909,27.3342,225,225.075,0,1.056615,28.1909,
6.535,28.1891,27.3335,225,225.075,0,1.056615,28.1891,
6.588333,28.1869,27.3305,225,225.079,0,1.056615,28.1869,
6.641667,28.1864,27.3326,225,225.079,0,1.056615,28.1864,
6.695,28.1832,27.3338,225,225.07,0,1.056615,28.1832,
6.748333,28.1813,27.3301,225,225.075,0,1.056615,28.1813,
6.801667,28.1812,27.3296,225,225.075,0,1.056615,28.1812,
6.855,28.179,27.3306,225,225.07,0,1.056615,28.179,
6.908333,28.1762,27.3297,225,225.075,0,1.056615,28.1762,
6.961667,28.1757,27.33,225,225.075,0,1.056615,28.1757,
7.015,28.1741,27.3288,225,225.079,0,1.056615,28.1741,
7.048333,26.5638,7.188259,223.804,225.062,0,1.056615,26.5638,
7.061667,22.6996,5.577132,221.487,224.337,0,1.056615,22.6996,
7.075,26.8231,11.78517,219.175,222.562,0,1.056615,26.8231,
7.088333,35.65601,20.5986,216.858,220.358,0,1.056615,35.65601,
7.101667,43.0171,26.7998,214.541,218.041,0,1.056615,43.0171,
7.115,45.7357,29.0717,212.229,215.695,0,1.056615,45.7357,
7.128333,44.05737,28.5743,209.912,213.37,0,1.056615,44.05737,
7.141667,39.6194,26.8307,207.6,211.058,0,1.056615,39.6194,
7.155,33.9409,24.8381,205.283,208.745,0,1.056615,33.9409,
7.168333,27.9986,23.0499,202.966,206.445,0,1.056615,27.9986,
7.181667,22.2896,21.578,200.654,204.141,0,1.056615,22.2896,
7.195,17.0298,20.4101,198.337,201.841,0,1.056615,17.0298,
7.208333,12.2873,19.4875,196.02,199.545,0,1.056615,12.2873,
7.221667,8.060918,18.7386,193.708,197.254,0,1.056615,8.060918,
7.235,4.317436,18.113,191.391,194.954,0,1.056615,4.317436,
7.248333,1.011392,17.5729,189.079,192.654,0,1.056615,1.011392,
7.261667,-1.902964,17.0936,186.762,190.362,0,1.056615,-1.902964,
7.275,-4.469694,16.6494,184.445,188.07,0,1.056615,-4.469694,
7.288333,-6.7299,16.2294,182.133,185.766,0,1.056615,-6.7299,
7.301667,-8.716653,15.8296,179.816,183.475,0,1.056615,-8.716653,
7.315,-10.4613,15.4407,177.5,181.183,0,1.056615,-10.4613,
7.328333,-11.9942,15.0593,175.187,178.891,0,1.056615,-11.9942,
7.341667,-13.3412,14.6828,172.87,176.604,0,1.056615,-13.3412,
7.355,-14.51895,14.2974,170.558,174.316,0,1.056615,-14.51895,
7.368333,-15.5464,13.9149,168.241,172.02,0,1.056615,-15.5464,
7.381667,-16.444,13.5379,165.925,169.737,0,1.056615,-16.444,
7.395,-17.2279,13.1683,163.612,167.445,0,1.056615,-17.2279,
7.408333,-17.911,12.7979,161.295,165.154,0,1.056615,-17.911,
7.421667,-18.5055,12.4217,158.979,162.862,0,1.056615,-18.5055,
7.435,-19.02,12.0397,156.666,160.579,0,1.056615,-19.02,
7.448333,-19.4642,11.65,154.35,158.295,0,1.056615,-19.4642,
7.461667,-19.8412,11.2537,152.033,156.012,0,1.056615,-19.8412,
7.475,-20.1557,10.8482,149.72,153.733,0,1.056615,-20.1557,
7.488333,-20.40789,10.4337,147.404,151.45,0,1.056615,-20.40789,
7.501667,-20.6026,10.0072,145.091,149.17,0,1.056615,-20.6026,
7.515,-20.7458,9.568814,142.775,146.9,0,1.056615,-20.7458,
7.528333,-20.838,9.114363,140.458,144.625,0,1.056615,-20.838,
7.541667,-20.86868,8.628215,138.145,142.354,0,1.056615,-20.86868,
7.555,-20.84068,8.112692,135.829,140.083,0,1.056615,-20.84068,
7.568333,-20.7436,7.573924,133.512,137.808,0,1.056615,-20.7436,
7.581667,-20.5786,7.00874,131.2,135.545,0,1.056615,-20.5786,
7.595,-20.3467,6.41936,128.883,133.283,0,1.056615,-20.3467,
7.608333,-20.0436,5.794161,126.57,131.016,0,1.056615,-20.0436,
7.621667,-19.6534,5.121943,124.254,128.766,0,1.056615,-19.6534,
7.635,-19.16288,4.396259,121.937,126.508,0,1.056615,-19.16288,
7.648333,-18.5481,3.597775,119.625,124.262,0,1.056615,-18.5481,
7.661667,-17.8003,2.710641,117.308,122.02,0,1.056615,-17.8003,
7.675,-17.6735,1.722389,114.991,119.783,0,1.056615,-17.6735,
7.688333,-18.6128,0.709623,112.679,117.566,0,1.056615,-18.6128,
7.701667,-19.5721,1.23064,110.362,115.383,0,1.056615,-19.5721,
7.715,-20.5001,1.897153,108.045,113.225,0,1.056615,-20.5001,
7.728333,-21.3769,2.462442,105.733,111.095,0,1.056615,-21.3769,
7.741667,-22.1852,2.905164,103.416,109,0,1.056615,-22.1852,
7.755,-22.917,3.228488,101.104,106.933,0,1.056615,-22.917,
7.768333,-23.5751,3.466649,98.787,104.895,0,1.056615,-23.5751,
7.781667,-24.1257,3.643315,96.47,102.879,0,1.056615,-24.1257,
7.795,-24.5915,3.760705,94.158,100.887,0,1.056615,-24.5915,
7.808333,-24.9869,3.828857,91.841,98.929,0,1.056615,-24.9869,
7.821667,-25.3175,3.852948,89.525,97,0,1.056615,-25.3175,
7.835,-25.5856,3.839846,87.212,95.091,0,1.056615,-25.5856,
7.848333,-25.7936,3.795151,84.895,93.2,0,1.056615,-25.7936,
7.861667,-25.94392,3.724991,82.583,91.341,0,1.056615,-25.94392,
7.875,-26.0422,3.651768,80.266,89.495,0,1.056615,-26.0422,
7.924583,-26.489,32.76173,80,83.733,0,1.056615,-26.489,
7.977917,-77.3136,40.3216,80,80.3,0,1.056615,-77.3136,
8.03125,-50.3826,9.936621,80,80.15,0,1.056615,-50.3826,
8.084583,-27.7942,10.7799,80,80.129,0,1.056615,-27.7942,
8.137917,-13.2975,11.8359,80,80.12,0,1.056615,-13.2975,
8.19125,-4.208287,12.0763,80,80.116,0,1.056615,-4.208287,
8.244583,1.633527,12.1335,80,80.108,0,1.056615,1.633527,
8.297917,5.40353,12.1464,80,80.108,0,1.056615,5.40353,
8.35125,7.842938,12.15,80,80.1,0,1.056615,7.842938,
8.404583,9.425748,12.1497,80,80.1,0,1.056615,9.425748,
8.457917,10.4535,12.1495,80,80.104,0,1.056615,10.4535,
8.51125,11.1246,12.1493,80,80.095,0,1.056615,11.1246,
8.564583,11.5625,12.1481,80,80.1,0,1.056615,11.5625,
8.617917,11.8514,12.1488,80,80.095,0,1.056615,11.8514,
8.67125,12.0394,12.1491,80,80.091,0,1.056615,12.0394,
8.724583,12.1643,12.1491,80,80.1,0,1.056615,12.1643,
8.777917,12.2479,12.1484,80,80.095,0,1.056615,12.2479,
8.83125,12.3021,12.1474,80,80.095,0,1.056615,12.3021,
8.884583,12.3399,12.1474,80,80.091,0,1.056615,12.3399,
8.937917,12.3638,12.1476,80,80.091,0,1.056615,12.3638,
8.99125,12.3795,12.1461,80,80.095,0,1.056615,12.3795,
9.044583,12.39304,12.1474,80,80.095,0,1.056615,12.39304,
9.097917,12.4003,12.1467,80,80.087,0,1.056615,12.4003,
9.15125,12.4062,12.147,80,80.095,0,1.056615,12.4062,
9.204583,12.4111,12.1463,80,80.095,0,1.056615,12.4111,
9.257917,12.4135,12.1461,80,80.091,0,1.056615,12.4135,
9.31125,12.4154,12.1478,80,80.095,0,1.056615,12.4154,
9.364583,12.4179,12.14537,80,80.095,0,1.056615,12.4179,
9.417917,12.4185,12.1455,80,80.091,0,1.056615,12.4185,
9.47125,12.4195,12.14706,80,80.095,0,1.056615,12.4195,
9.524583,12.4213,12.146,80,80.095,0,1.056615,12.4213,
9.577917,12.4229,12.1466,80,80.091,0,1.056615,12.4229,
9.63125,12.42326,12.1452,80,80.095,0,1.056615,12.42326,
9.684583,12.42326,12.1458,80,80.095,0,1.056615,12.42326,
9.737917,12.4242,12.1462,80,80.091,0,1.056615,12.4242,
9.79125,12.4248,12.1461,80,80.095,0,1.056615,12.4248,
9.844583,12.4258,12.1456,80,80.091,0,1.056615,12.4258,
9.897917,12.4256,12.1457,80,80.091,0,1.056615,12.4256,
9.95125,12.4264,12.146,80,80.091,0,1.056615,12.4264,
10.0046,12.4269,12.1465,80,80.091,0,1.056615,12.4269,
10.0579,12.4282,12.1456,80,80.091,0,1.056615,12.4282,
10.11125,12.4275,12.1459,80,80.091,0,1.056615,12.4275,
10.1646,12.4283,12.1463,80,80.091,0,1.056615,12.4283,
10.2179,12.4282,12.1461,80,80.091,0,1.056615,12.4282,
10.27125,12.4292,12.146,80,80.091,0,1.056615,12.4292,
10.3246,12.4278,12.1467,80,80.095,0,1.056615,12.4278,
10.3779,12.4284,12.1465,80,80.091,0,1.056615,12.4284,
10.43125,12.4286,12.1467,80,80.091,0,1.056615,12.4286,
10.4846,12.4296,12.1458,80,80.091,0,1.056615,12.4296,
10.5379,12.4298,12.1463,80,80.091,0,1.056615,12.4298,
10.59125,12.43055,12.1451,80,80.091,0,1.056615,12.43055,
10.6446,12.4299,12.1464,80,80.091,0,1.056615,12.4299,
10.6979,12.4301,12.14537,80,80.091,0,1.056615,12.4301,
10.75125,12.43055,12.1458,80,80.087,0,1.056615,12.43055,
10.8046,12.4307,12.1459,80,80.091,0,1.056615,12.4307,
10.8579,12.4298,12.1457,80,80.091,0,1.056615,12.4298,
10.91125,12.4309,12.1457,80,80.087,0,1.056615,12.4309,
10.9646,12.4295,12.1456,80,80.091,0,1.056615,12.4295,
11.0179,12.4308,12.1464,80,80.091,0,1.056615,12.4308,
11.07125,12.431,12.1457,80,80.091,0,1.056615,12.431,
11.1246,12.4301,12.1459,80,80.087,0,1.056615,12.4301,
11.1779,12.43129,12.1451,80,80.091,0,1.056615,12.43129,
11.23125,12.4314,12.1462,80,80.091,0,1.056615,12.4314,
11.2846,12.43129,12.1453,80,80.087,0,1.056615,12.43129,
11.3379,12.4327,12.1455,80,80.087,0,1.056615,12.4327,
11.39125,12.4328,12.1448,80,80.091,0,1.056615,12.4328,
11.4446,12.4321,12.1466,80,80.095,0,1.056615,12.4321,
11.4979,12.4322,12.1459,80,80.087,0,1.056615,12.4322,
11.55125,12.4336,12.1461,80,80.087,0,1.056615,12.4336,
11.6046,12.43372,12.14537,80,80.091,0,1.056615,12.43372,
11.6579,12.4326,12.14537,80,80.087,0,1.056615,12.4326,
11.71125,12.4339,12.1457,80,80.091,0,1.056615,12.4339,
11.7646,12.4332,12.1451,80,80.091,0,1.056615,12.4332,
11.8179,12.43446,12.1452,80,80.087,0,1.056615,12.43446,
11.87125,12.434,12.1455,80,80.087,0,1.056615,12.434,
11.9246,12.434,12.1449,80,80.091,0,1.056615,12.434,
11.9779,12.4349,12.1451,80,80.087,0,1.056615,12.4349,
12.03125,12.4334,12.1439,80,80.087,0,1.056615,12.4334,
12.0846,12.4347,12.1459,80,80.091,0,1.056615,12.4347,
12.1379,12.4346,12.1447,80,80.091,0,1.056615,12.4346,
12.19125,12.4351,12.14537,80,80.087,0,1.056615,12.4351,
12.2446,12.434,12.1449,80,80.091,0,1.056615,12.434,
12.2979,12.4351,12.1461,80,80.087,0,1.056615,12.4351,
12.35125,12.4354,12.1449,80,80.087,0,1.056615,12.4354,
12.4046,12.435,12.1459,80,80.087,0,1.056615,12.435,
12.4579,12.4347,12.1458,80,80.091,0,1.056615,12.4347,
12.51125,12.4336,12.1448,80,80.087,0,1.056615,12.4336,
12.5646,12.4347,12.1443,80,80.091,0,1.056615,12.4347,
12.6179,12.4347,12.1451,80,80.087,0,1.056615,12.4347,
12.67125,12.4342,12.1452,80,80.091,0,1.056615,12.4342,
12.7246,12.434,12.14537,80,80.095,0,1.056615,12.434,
12.7779,12.4358,12.1447,80,80.083,0,1.056615,12.4358,
12.83125,12.4347,12.1445,80,80.091,0,1.056615,12.4347,
12.8846,12.4352,12.1452,80,80.091,0,1.056615,12.4352,
12.9379,12.4352,12.1455,80,80.087,0,1.056615,12.4352,
12.99125,12.4348,12.1453,80,80.091,0,1.056615,12.4348,
13.0446,12.4359,12.1448,80,80.087,0,1.056615,12.4359,
13.0979,12.4351,12.1448,80,80.087,0,1.056615,12.4351,
13.15125,12.435,12.1444,80,80.087,0,1.056615,12.435,
13.2046,12.435,12.1447,80,80.087,0,1.056615,12.435,
13.2579,12.4348,12.1448,80,80.087,0,1.056615,12.4348,
13.31125,12.4352,12.1458,80,80.087,0,1.056615,12.4352,
13.3646,12.4359,12.1456,80,80.091,0,1.056615,12.4359,
13.4179,12.4344,12.1449,80,80.091,0,1.056615,12.4344,
13.47125,12.4347,12.1453,80,80.091,0,1.056615,12.4347,
13.5246,12.4344,12.1443,80,80.087,0,1.056615,12.4344,
13.5779,12.4349,12.1447,80,80.087,0,1.056615,12.4349,
13.63125,12.4354,12.14537,80,80.087,0,1.056615,12.4354,
13.6846,12.4354,12.1449,80,80.087,0,1.056615,12.4354,
13.7379,12.4344,12.1441,80,80.083,0,1.056615,12.4344,
13.79125,12.4339,12.1452,80,80.087,0,1.056615,12.4339,
13.8446,12.4339,12.14463,80,80.087,0,1.056615,12.4339,
13.8979,12.4365,12.1447,80,80.087,0,1.056615,12.4365,
13.95125,12.4355,12.1443,80,80.087,0,1.056615,12.4355,
14.0046,12.4348,12.1444,80,80.087,0,1.056615,12.4348,
14.0579,12.435,12.1428,80,80.087,0,1.056615,12.435,
14.11125,12.4344,12.1444,80,80.087,0,1.056615,12.4344,
14.1646,12.4348,12.1448,80,80.087,0,1.056615,12.4348,
14.2179,12.4355,12.1435,80,80.087,0,1.056615,12.4355,
14.27125,12.43689,12.144,80,80.091,0,1.056615,12.43689,
14.3246,12.4352,12.1435,80,80.087,0,1.056615,12.4352,
14.3779,12.4358,12.1444,80,80.083,0,1.056615,12.4358,
14.43125,12.4349,12.1437,80,80.091,0,1.056615,12.4349,
14.4846,12.4355,12.1438,80,80.087,0,1.056615,12.4355,
14.5379,12.4357,12.1444,80,80.087,0,1.056615,12.4357,
14.59125,12.4349,12.1436,80,80.087,0,1.056615,12.4349,
14.6446,12.4357,12.144,80,80.087,0,1.056615,12.4357,
14.6979,12.4357,12.1437,80,80.087,0,1.056615,12.4357,
14.75125,12.4354,12.1433,80,80.087,0,1.056615,12.4354,
14.8046,12.43446,12.144,80,80.087,0,1.056615,12.43446,
14.8579,12.4349,12.1433,80,80.087,0,1.056615,12.4349,
14.91125,12.4357,12.1436,80,80.087,0,1.056615,12.4357,
14.9646,12.4349,12.14294,80,80.087,0,1.056615,12.4349,
15.0179,12.4358,12.1439,80,80.087,0,1.056615,12.4358,
15.07125,12.4354,12.1442,80,80.087,0,1.056615,12.4354,
15.1246,12.4366,12.1439,80,80.083,0,1.056615,12.4366,
15.1779,12.4359,12.143,80,80.083,0,1.056615,12.4359,
15.23125,12.4364,12.1433,80,80.087,0,1.056615,12.4364,
15.2846,12.43615,12.1438,80,80.087,0,1.056615,12.43615,
15.3379,12.4355,12.1432,80,80.083,0,1.056615,12.4355,
15.39125,12.4355,12.1432,80,80.087,0,1.056615,12.4355,
15.4446,12.435,12.1433,80,80.083,0,1.056615,12.435,
15.4979,12.4364,12.1426,80,80.083,0,1.056615,12.4364,
15.55125,12.4355,12.1428,80,80.083,0,1.056615,12.4355,
15.6046,12.4354,12.1435,80,80.087,0,1.056615,12.4354,
15.6579,12.4355,12.1427,80,80.083,0,1.056615,12.4355,
15.71125,12.435,12.143,80,80.087,0,1.056615,12.435,
15.7646,12.4348,12.1424,80,80.083,0,1.056615,12.4348,
15.8179,12.4349,12.1432,80,80.087,0,1.056615,12.4349,
15.87125,12.4351,12.1438,80,80.083,0,1.056615,12.4351,
15.9246,12.4352,12.1428,80,80.087,0,1.056615,12.4352,
15.9779,12.4356,12.14294,80,80.083,0,1.056615,12.4356,
16.03125,12.4355,12.1434,80,80.083,0,1.056615,12.4355,
16.0846,12.435,12.1441,80,80.087,0,1.056615,12.435,
16.1379,12.4356,12.1426,80,80.083,0,1.056615,12.4356,
16.19125,12.4352,12.1432,80,80.083,0,1.056615,12.4352,
16.2446,12.4353,12.14294,80,80.083,0,1.056615,12.4353,
16.2979,12.4359,12.1426,80,80.087,0,1.056615,12.4359,
16.35125,12.4353,12.1435,80,80.083,0,1.056615,12.4353,
16.4046,12.4363,12.1436,80,80.083,0,1.056615,12.4363,
16.4579,12.4356,12.1428,80,80.083,0,1.056615,12.4356,
16.51125,12.4352,12.1432,80,80.087,0,1.056615,12.4352,
16.5646,12.4357,12.14294,80,80.079,0,1.056615,12.4357,
16.6179,12.4357,12.1426,80,80.083,0,1.056615,12.4357,
16.67125,12.4363,12.1439,80,80.087,0,1.056615,12.4363,
16.7246,12.4354,12.1436,80,80.087,0,1.056615,12.4354,
16.7779,12.4371,12.1426,80,80.083,0,1.056615,12.4371,
16.83125,12.4363,12.143,80,80.083,0,1.056615,12.4363,
16.8846,12.435,12.1421,80,80.087,0,1.056615,12.435,
16.9379,12.4363,12.1436,80,80.087,0,1.056615,12.4363,
16.99125,12.4372,12.1427,80,80.087,0,1.056615,12.4372,
17.0446,12.4372,12.142,80,80.083,0,1.056615,12.4372,
17.0979,12.4353,12.1423,80,80.083,0,1.056615,12.4353,
17.15125,12.4356,12.143,80,80.087,0,1.056615,12.4356,
17.2046,12.4358,12.1421,80,80.083,0,1.056615,12.4358,
17.2579,12.43689,12.1418,80,80.087,0,1.056615,12.43689,
17.31125,12.4366,12.1422,80,80.083,0,1.056615,12.4366,
17.3646,12.437,12.14294,80,80.083,0,1.056615,12.437,
17.4179,12.4371,12.1422,80,80.087,0,1.056615,12.4371,
17.47125,12.4352,12.1427,80,80.087,0,1.056615,12.4352,
17.5246,12.4352,12.1427,80,80.083,0,1.056615,12.4352,
17.5779,12.4352,12.1426,80,80.083,0,1.056615,12.4352,
17.63125,12.4359,12.1438,80,80.083,0,1.056615,12.4359,
17.6846,12.4353,12.14294,80,80.087,0,1.056615,12.4353,
17.7379,12.4354,12.143,80,80.087,0,1.056615,12.4354,
17.79125,12.4352,12.1426,80,80.083,0,1.056615,12.4352,
17.8446,12.4364,12.1432,80,80.083,0,1.056615,12.4364,
17.8979,12.4359,12.1434,80,80.083,0,1.056615,12.4359,
17.95125,12.4365,12.142,80,80.083,0,1.056615,12.4365,
18.0046,12.4368,12.14294,80,80.083,0,1.056615,12.4368,
18.0579,12.4357,12.1437,80,80.083,0,1.056615,12.4357,
18.11125,12.4356,12.1433,80,80.083,0,1.056615,12.4356,
18.1646,12.4372,12.1432,80,80.083,0,1.056615,12.4372,
18.2179,12.4363,12.1427,80,80.087,0,1.056615,12.4363,
18.27125,12.437,12.143,80,80.087,0,1.056615,12.437,
18.3246,12.437,12.1433,80,80.083,0,1.056615,12.437,
18.3779,12.4374,12.143,80,80.083,0,1.056615,12.4374,
18.43125,12.43615,12.1428,80,80.087,0,1.056615,12.43615,
18.4846,12.4358,12.1426,80,80.087,0,1.056615,12.4358,
18.5379,12.4359,12.1436,80,80.083,0,1.056615,12.4359,
18.59125,12.4347,12.1425,80,80.083,0,1.056615,12.4347,
18.6446,12.4359,12.1421,80,80.083,0,1.056615,12.4359,
18.6979,12.4366,12.1435,80,80.079,0,1.056615,12.4366,
18.75125,12.4358,12.14294,80,80.083,0,1.056615,12.4358,
18.8046,12.4357,12.1432,80,80.087,0,1.056615,12.4357,
18.8579,12.4353,12.1432,80,80.083,0,1.056615,12.4353,
18.91125,12.4364,12.1425,80,80.087,0,1.056615,12.4364,
18.9646,12.435,12.1421,80,80.083,0,1.056615,12.435,
19.0179,12.436,12.1437,80,80.083,0,1.056615,12.436,
19.07125,12.4371,12.1425,80,80.083,0,1.056615,12.4371,
19.1246,12.43615,12.1424,80,80.083,0,1.056615,12.43615,
19.1779,12.4374,12.1426,80,80.083,0,1.056615,12.4374,
19.23125,12.4368,12.1427,80,80.087,0,1.056615,12.4368,
19.2846,12.4364,12.14294,80,80.083,0,1.056615,12.4364,
19.3379,12.4382,12.1433,80,80.087,0,1.056615,12.4382,
19.39125,12.4359,12.1426,80,80.087,0,1.056615,12.4359,
19.4446,12.4372,12.1427,80,80.083,0,1.056615,12.4372,
19.4979,12.43689,12.1425,80,80.083,0,1.056615,12.43689,
19.55125,12.43763,12.14294,80,80.079,0,1.056615,12.43763,
19.6046,12.4377,12.1434,80,80.083,0,1.056615,12.4377,
19.6579,12.4374,12.1426,80,80.087,0,1.056615,12.4374,
19.71125,12.4372,12.1428,80,80.083,0,1.056615,12.4372,
19.7646,12.4372,12.1436,80,80.087,0,1.056615,12.4372,
19.8179,12.4368,12.1423,80,80.083,0,1.056615,12.4368,
19.87125,12.4359,12.143,80,80.083,0,1.056615,12.4359,
19.9246,12.4371,12.143,80,80.083,0,1.056615,12.4371,
19.9779,12.4373,12.1424,80,80.083,0,1.056615,12.4373,
20.03125,12.4364,12.1421,80,80.083,0,1.056615,12.4364,
20.0846,12.4358,12.1427,80,80.083,0,1.056615,12.4358,
20.1379,12.4364,12.1424,80,80.079,0,1.056615,12.4364,
20.19125,12.4367,12.1422,80,80.083,0,1.056615,12.4367,
20.2446,12.4379,12.1432,80,80.083,0,1.056615,12.4379,
20.2979,12.43763,12.1427,80,80.083,0,1.056615,12.43763,
20.35125,12.4373,12.1422,80,80.083,0,1.056615,12.4373,
20.4046,12.4375,12.1427,80,80.083,0,1.056615,12.4375,
20.4579,12.4368,12.1426,80,80.087,0,1.056615,12.4368,
20.51125,12.4367,12.1419,80,80.079,0,1.056615,12.4367,
20.5646,12.4368,12.1426,80,80.083,0,1.056615,12.4368,
20.6179,12.4371,12.1425,80,80.083,0,1.056615,12.4371,
20.67125,12.4375,12.1432,80,80.083,0,1.056615,12.4375,
20.7246,12.4364,12.1421,80,80.083,0,1.056615,12.4364,
20.7779,12.43763,12.1432,80,80.083,0,1.056615,12.43763,
20.83125,12.4373,12.1434,80,80.083,0,1.056615,12.4373,
20.8846,12.4364,12.1423,80,80.087,0,1.056615,12.4364,
20.9379,12.4366,12.1428,80,80.083,0,1.056615,12.4366,
20.99125,12.437,12.1426,80,80.083,0,1.056615,12.437,
21.0446,12.4373,12.1426,80,80.083,0,1.056615,12.4373,
21.0979,12.4373,12.1425,80,80.083,0,1.056615,12.4373,
21.15125,12.4386,12.1428,80,80.079,0,1.056615,12.4386,
21.2046,12.4386,12.1424,80,80.083,0,1.056615,12.4386,
21.2579,12.43763,12.1425,80,80.083,0,1.056615,12.43763,
21.31125,12.4379,12.1426,80,80.083,0,1.056615,12.4379,
21.3646,12.4383,12.1426,80,80.083,0,1.056615,12.4383,
21.4179,12.43763,12.1426,80,80.079,0,1.056615,12.43763,
21.47125,12.4373,12.1419,80,80.083,0,1.056615,12.4373,
21.5246,12.4365,12.1423,80,80.083,0,1.056615,12.4365,
21.5779,12.4375,12.1417,80,80.083,0,1.056615,12.4375,
21.63125,12.4372,12.1423,80,80.083,0,1.056615,12.4372,
21.6846,12.43689,12.1418,80,80.087,0,1.056615,12.43689,
21.7379,12.4373,12.142,80,80.079,0,1.056615,12.4373,
21.79125,12.4378,12.1423,80,80.083,0,1.056615,12.4378,
21.8446,12.437,12.1419,80,80.087,0,1.056615,12.437,
21.8979,12.4371,12.1418,80,80.083,0,1.056615,12.4371,
21.95125,12.4377,12.142,80,80.083,0,1.056615,12.4377,
22.0046,12.4382,12.14294,80,80.079,0,1.056615,12.4382,
22.0579,12.4381,12.1412,80,80.079,0,1.056615,12.4381,
22.11125,12.4389,12.1424,80,80.079,0,1.056615,12.4389,
22.1646,12.4377,12.1424,80,80.079,0,1.056615,12.4377,
22.2179,12.4382,12.1426,80,80.083,0,1.056615,12.4382,
22.27125,12.4382,12.142,80,80.083,0,1.056615,12.4382,
22.3246,12.4389,12.1434,80,80.079,0,1.056615,12.4389,
22.3779,12.4392,12.1424,80,80.083,0,1.056615,12.4392,
22.43125,12.4382,12.1427,80,80.083,0,1.056615,12.4382,
22.4846,12.4389,12.1422,80,80.083,0,1.056615,12.4389,
22.5379,12.4382,12.1424,80,80.083,0,1.056615,12.4382,
22.59125,12.43689,12.1422,80,80.083,0,1.056615,12.43689,
22.6446,12.4377,12.1425,80,80.087,0,1.056615,12.4377,
22.6979,12.4375,12.143,80,80.083,0,1.056615,12.4375,
22.75125,12.43763,12.1428,80,80.083,0,1.056615,12.43763,
22.8046,12.44006,12.1424,80,80.075,0,1.056615,12.44006,
22.8579,12.4384,12.1426,80,80.083,0,1.056615,12.4384,
22.91125,12.4379,12.14146,80,80.083,0,1.056615,12.4379,
22.9646,12.4389,12.1423,80,80.083,0,1.056615,12.4389,
23.0179,12.4386,12.1424,80,80.083,0,1.056615,12.4386,
23.07125,12.4383,12.14146,80,80.083,0,1.056615,12.4383,
23.1246,12.4386,12.1423,80,80.079,0,1.056615,12.4386,
23.1779,12.4374,12.1417,80,80.083,0,1.056615,12.4374,
23.23125,12.4381,12.1419,80,80.083,0,1.056615,12.4381,
23.2846,12.4391,12.1423,80,80.083,0,1.056615,12.4391,
23.3379,12.439,12.1425,80,80.079,0,1.056615,12.439,
23.39125,12.437,12.1432,80,80.083,0,1.056615,12.437,
23.4446,12.43932,12.14146,80,80.083,0,1.056615,12.43932,
23.4979,12.43763,12.1419,80,80.083,0,1.056615,12.43763,
23.55125,12.4382,12.1417,80,80.083,0,1.056615,12.4382,
23.6046,12.4384,12.1421,80,80.083,0,1.056615,12.4384,
23.6579,12.4388,12.14146,80,80.083,0,1.056615,12.4388,
23.71125,12.4385,12.1416,80,80.083,0,1.056615,12.4385,
23.7646,12.437,12.1423,80,80.079,0,1.056615,12.437,
23.8179,12.437,12.1421,80,80.087,0,1.056615,12.437,
23.87125,12.4386,12.1423,80,80.079,0,1.056615,12.4386,
23.9246,12.4382,12.1421,80,80.083,0,1.056615,12.4382,
23.9779,12.4378,12.1423,80,80.083,0,1.056615,12.4378,
24.03125,12.4382,12.1412,80,80.083,0,1.056615,12.4382,
24.0846,12.4386,12.1416,80,80.083,0,1.056615,12.4386,
24.1379,12.4379,12.1426,80,80.083,0,1.056615,12.4379,
24.19125,12.4384,12.1427,80,80.083,0,1.056615,12.4384,
24.2446,12.4384,12.1417,80,80.079,0,1.056615,12.4384,
24.2979,12.4371,12.142,80,80.083,0,1.056615,12.4371,
24.35125,12.437,12.1424,80,80.083,0,1.056615,12.437,
24.4046,12.4381,12.142,80,80.079,0,1.056615,12.4381,
24.4579,12.4372,12.1425,80,80.083,0,1.056615,12.4372,
24.51125,12.4371,12.1418,80,80.083,0,1.056615,12.4371,
24.5646,12.4373,12.1419,80,80.079,0,1.056615,12.4373,
24.6179,12.4377,12.143,80,80.079,0,1.056615,12.4377,
24.67125,12.4377,12.1417,80,80.083,0,1.056615,12.4377,
24.7246,12.4373,12.142,80,80.079,0,1.056615,12.4373,
24.7779,12.4374,12.1417,80,80.079,0,1.056615,12.4374,
24.83125,12.4371,12.1417,80,80.083,0,1.056615,12.4371,
24.8846,12.4375,12.1419,80,80.083,0,1.056615,12.4375,
24.9379,12.4386,12.142,80,80.083,0,1.056615,12.4386,
24.99125,12.4377,12.1419,80,80.083,0,1.056615,12.4377,
25.0446,12.4371,12.1417,80,80.079,0,1.056615,12.4371,
25.0979,12.4368,12.1416,80,80.079,0,1.056615,12.4368,
25.15125,12.4378,12.1424,80,80.079,0,1.056615,12.4378,
25.2046,12.4375,12.1417,80,80.083,0,1.056615,12.4375,
25.2579,12.437,12.141,80,80.083,0,1.056615,12.437,
25.31125,12.4386,12.1422,80,80.079,0,1.056615,12.4386,
25.3646,12.4377,12.1421,80,80.079,0,1.056615,12.4377,
25.4179,12.4383,12.14146,80,80.079,0,1.056615,12.4383,
25.47125,12.4381,12.1416,80,80.087,0,1.056615,12.4381,
25.5246,12.4373,12.1407,80,80.083,0,1.056615,12.4373,
25.5779,12.4381,12.1411,80,80.083,0,1.056615,12.4381,
25.63125,12.4371,12.1422,80,80.083,0,1.056615,12.4371,
25.6846,12.4386,12.1419,80,80.083,0,1.056615,12.4386,
25.7379,12.4375,12.1416,80,80.083,0,1.056615,12.4375,
25.79125,12.4386,12.142,80,80.079,0,1.056615,12.4386,
25.8446,12.4386,12.1414,80,80.079,0,1.056615,12.4386,
25.8979,12.437,12.14146,80,80.079,0,1.056615,12.437,
25.95125,12.4363,12.1411,80,80.079,0,1.056615,12.4363,
26.0046,12.4375,12.1419,80,80.079,0,1.056615,12.4375,
26.0579,12.4373,12.1417,80,80.083,0,1.056615,12.4373,
26.11125,12.4358,12.1412,80,80.083,0,1.056615,12.4358,
26.1646,12.4365,12.1418,80,80.083,0,1.056615,12.4365,
26.2179,12.4366,12.1423,80,80.079,0,1.056615,12.4366,
26.27125,12.4372,12.1422,80,80.083,0,1.056615,12.4372,
26.3246,12.4375,12.1417,80,80.083,0,1.056615,12.4375,
26.3779,12.4366,12.1421,80,80.079,0,1.056615,12.4366,
26.43125,12.43615,12.1417,80,80.083,0,1.056615,12.43615,
26.4846,12.43615,12.1423,80,80.083,0,1.056615,12.43615,
26.5379,12.4375,12.1419,80,80.079,0,1.056615,12.4375,
26.59125,12.4368,12.14146,80,80.087,0,1.056615,12.4368,
26.6446,12.4368,12.14146,80,80.083,0,1.056615,12.4368,
26.6979,12.4366,12.14146,80,80.083,0,1.056615,12.4366,
26.75125,12.4359,12.1424,80,80.079,0,1.056615,12.4359,
26.8046,12.43615,12.1427,80,80.079,0,1.056615,12.43615,
26.8579,12.43615,12.1419,80,80.079,0,1.056615,12.43615,
26.91125,12.43763,12.1424,80,80.079,0,1.056615,12.43763,
26.9646,12.4354,12.1422,80,80.083,0,1.056615,12.4354,
27.0179,12.437,12.1412,80,80.083,0,1.056615,12.437,
27.07125,12.4366,12.1419,80,80.083,0,1.056615,12.4366,
27.1246,12.436,12.1412,80,80.083,0,1.056615,12.436,
27.1779,12.43763,12.1406,80,80.083,0,1.056615,12.43763,
27.23125,12.436,12.1422,80,80.079,0,1.056615,12.436,
27.2846,12.43689,12.1411,80,80.079,0,1.056615,12.43689,
27.3379,12.4375,12.1427,80,80.079,0,1.056615,12.4375,
27.39125,12.4366,12.1424,80,80.083,0,1.056615,12.4366,
27.4446,12.4367,12.1416,80,80.083,0,1.056615,12.4367,
27.4979,12.4355,12.14146,80,80.075,0,1.056615,12.4355,
27.55125,12.4364,12.1426,80,80.083,0,1.056615,12.4364,
27.6046,12.4368,12.1416,80,80.079,0,1.056615,12.4368,
27.6579,12.4368,12.1421,80,80.079,0,1.056615,12.4368,
27.71125,12.4365,12.1417,80,80.079,0,1.056615,12.4365,
27.7646,12.4357,12.1418,80,80.083,0,1.056615,12.4357,
27.8179,12.4365,12.1419,80,80.083,0,1.056615,12.4365,
27.87125,12.4371,12.1416,80,80.079,0,1.056615,12.4371,
27.9246,12.4366,12.1423,80,80.079,0,1.056615,12.4366,
27.9779,12.4373,12.1416,80,80.083,0,1.056615,12.4373,
28.03125,12.4365,12.142,80,80.079,0,1.056615,12.4365,
28.0846,12.4357,12.1418,80,80.083,0,1.056615,12.4357,
28.1379,12.4356,12.1424,80,80.083,0,1.056615,12.4356,
28.19125,12.4371,12.1423,80,80.083,0,1.056615,12.4371,
28.2446,12.4365,12.1412,80,80.083,0,1.056615,12.4365,
28.2979,12.4354,12.142,80,80.079,0,1.056615,12.4354,
28.35125,12.437,12.141,80,80.083,0,1.056615,12.437,
28.4046,12.4364,12.1416,80,80.079,0,1.056615,12.4364,
28.4579,12.437,12.1422,80,80.083,0,1.056615,12.437,
28.51125,12.437,12.1416,80,80.079,0,1.056615,12.437,
28.5646,12.4352,12.1419,80,80.079,0,1.056615,12.4352,
28.6179,12.4371,12.1419,80,80.079,0,1.056615,12.4371,
28.67125,12.43615,12.1422,80,80.079,0,1.056615,12.43615,
28.7246,12.43689,12.1427,80,80.075,0,1.056615,12.43689,
28.7779,12.4368,12.14146,80,80.075,0,1.056615,12.4368,
28.83125,12.4375,12.1427,80,80.083,0,1.056615,12.4375,
28.8846,12.436,12.1422,80,80.075,0,1.056615,12.436,
28.9379,12.4363,12.1419,80,80.083,0,1.056615,12.4363,
28.99125,12.4368,12.1416,80,80.079,0,1.056615,12.4368,
29.0446,12.43615,12.1409,80,80.083,0,1.056615,12.43615,
29.0979,12.4367,12.1422,80,80.079,0,1.056615,12.4367,
29.15125,12.43689,12.1417,80,80.079,0,1.056615,12.43689,
29.2046,12.437,12.14146,80,80.079,0,1.056615,12.437,
29.2579,12.4368,12.1422,80,80.079,0,1.056615,12.4368,
29.31125,12.436,12.1417,80,80.079,0,1.056615,12.436,
29.3646,12.4352,12.1418,80,80.079,0,1.056615,12.4352,
29.4179,12.4358,12.1421,80,80.079,0,1.056615,12.4358,
29.47125,12.4371,12.1424,80,80.083,0,1.056615,12.4371,
29.5246,12.4359,12.1416,80,80.079,0,1.056615,12.4359,
29.5779,12.4354,12.1411,80,80.079,0,1.056615,12.4354,
29.63125,12.4357,12.141,80,80.083,0,1.056615,12.4357,
29.6846,12.4353,12.1416,80,80.079,0,1.056615,12.4353,
29.7379,12.436,12.1416,80,80.079,0,1.056615,12.436,
29.79125,12.4355,12.1409,80,80.083,0,1.056615,12.4355,
29.8446,12.436,12.1423,80,80.079,0,1.056615,12.436,
29.8979,12.4375,12.1412,80,80.079,0,1.056615,12.4375,
29.95125,12.4365,12.1417,80,80.075,0,1.056615,12.4365,
30.0046,12.4373,12.1414,80,80.083,0,1.056615,12.4373,
30.0579,12.437,12.1411,80,80.079,0,1.056615,12.437,
30.11125,12.4379,12.14146,80,80.079,0,1.056615,12.4379,
30.1646,12.43689,12.1414,80,80.079,0,1.056615,12.43689,
30.2179,12.437,12.1414,80,80.079,0,1.056615,12.437,
30.27125,12.4373,12.1408,80,80.079,0,1.056615,12.4373,
30.3246,12.4367,12.141,80,80.079,0,1.056615,12.4367,
30.3779,12.43615,12.1411,80,80.083,0,1.056615,12.43615,
30.43125,12.4364,12.141,80,80.083,0,1.056615,12.4364,
30.4846,12.4357,12.1411,80,80.079,0,1.056615,12.4357,
30.5379,12.4363,12.1414,80,80.079,0,1.056615,12.4363,
30.59125,12.436,12.1414,80,80.079,0,1.056615,12.436,
30.6446,12.4363,12.1409,80,80.075,0,1.056615,12.4363,
30.6979,12.4364,12.14146,80,80.075,0,1.056615,12.4364,
30.75125,12.4368,12.1406,80,80.079,0,1.056615,12.4368,
30.8046,12.4375,12.1411,80,80.079,0,1.056615,12.4375,
30.8579,12.4357,12.1403,80,80.079,0,1.056615,12.4357,
30.91125,12.4358,12.1404,80,80.079,0,1.056615,12.4358,
30.9646,12.4368,12.1407,80,80.075,0,1.056615,12.4368,
31.0179,12.4364,12.1402,80,80.079,0,1.056615,12.4364,
31.07125,12.436,12.1408,80,80.079,0,1.056615,12.436,
31.1246,12.4365,12.141,80,80.075,0,1.056615,12.4365,
31.1779,12.4358,12.141,80,80.075,0,1.056615,12.4358,
31.23125,12.4367,12.1401,80,80.079,0,1.056615,12.4367,
31.2846,12.4364,12.1408,80,80.079,0,1.056615,12.4364,
31.3379,12.4364,12.1405,80,80.079,0,1.056615,12.4364,
31.39125,12.43689,12.1411,80,80.075,0,1.056615,12.43689,
31.4446,12.4368,12.13977,80,80.083,0,1.056615,12.4368,
31.4979,12.4351,12.14146,80,80.079,0,1.056615,12.4351,
31.55125,12.437,12.1409,80,80.079,0,1.056615,12.437,
31.6046,12.4359,12.141,80,80.079,0,1.056615,12.4359,
31.6579,12.4374,12.1419,80,80.079,0,1.056615,12.4374,
31.71125,12.4368,12.141,80,80.079,0,1.056615,12.4368,
31.7646,12.4355,12.141,80,80.079,0,1.056615,12.4355,
31.8179,12.4363,12.1409,80,80.079,0,1.056615,12.4363,
31.87125,12.4364,12.1418,80,80.079,0,1.056615,12.4364,
31.9246,12.4351,12.141,80,80.075,0,1.056615,12.4351,
31.9779,12.4363,12.1409,80,80.079,0,1.056615,12.4363,
32.03125,12.437,12.1416,80,80.079,0,1.056615,12.437,
32.0846,12.437,12.141,80,80.079,0,1.056615,12.437,
32.1379,12.4358,12.1407,80,80.079,0,1.056615,12.4358,
32.19125,12.4357,12.1404,80,80.079,0,1.056615,12.4357,
32.2446,12.4357,12.1411,80,80.079,0,1.056615,12.4357,
32.2979,12.4354,12.1416,80,80.079,0,1.056615,12.4354,
32.35125,12.4352,12.1403,80,80.079,0,1.056615,12.4352,
32.4046,12.4356,12.1405,80,80.075,0,1.056615,12.4356,
32.4579,12.4356,12.14146,80,80.075,0,1.056615,12.4356,
32.51125,12.4357,12.1397,80,80.083,0,1.056615,12.4357,
32.5646,12.43615,12.141,80,80.075,0,1.056615,12.43615,
32.6179,12.4357,12.1399,80,80.079,0,1.056615,12.4357,
32.67125,12.43615,12.14,80,80.079,0,1.056615,12.43615,
32.7246,12.43615,12.1408,80,80.079,0,1.056615,12.43615,
32.7779,12.43689,12.1407,80,80.075,0,1.056615,12.43689,
32.83125,12.436,12.1405,80,80.079,0,1.056615,12.436,
32.8846,12.4363,12.14146,80,80.079,0,1.056615,12.4363,
32.9379,12.436,12.14146,80,80.079,0,1.056615,12.436,
32.99125,12.4368,12.1406,80,80.079,0,1.056615,12.4368,
33.0446,12.4368,12.1404,80,80.075,0,1.056615,12.4368,
33.0979,12.4355,12.141,80,80.075,0,1.056615,12.4355,
33.15125,12.4351,12.1408,80,80.075,0,1.056615,12.4351,
33.2046,12.4365,12.1406,80,80.079,0,1.056615,12.4365,
33.2579,12.436,12.1408,80,80.075,0,1.056615,12.436,
33.31125,12.4368,12.1403,80,80.079,0,1.056615,12.4368,
33.3646,12.4356,12.1418,80,80.079,0,1.056615,12.4356,
33.4179,12.4358,12.1417,80,80.079,0,1.056615,12.4358,
33.47125,12.4368,12.14146,80,80.075,0,1.056615,12.4368,
33.5246,12.4358,12.141,80,80.079,0,1.056615,12.4358,
33.5779,12.4359,12.1399,80,80.075,0,1.056615,12.4359,
33.63125,12.4359,12.1414,80,80.079,0,1.056615,12.4359,
33.6846,12.4367,12.14,80,80.075,0,1.056615,12.4367,
33.7379,12.4364,12.1406,80,80.079,0,1.056615,12.4364,
33.79125,12.4357,12.1391,80,80.079,0,1.056615,12.4357,
33.8446,12.4356,12.1408,80,80.083,0,1.056615,12.4356,
33.8979,12.4358,12.1401,80,80.079,0,1.056615,12.4358,
33.95125,12.43615,12.1402,80,80.079,0,1.056615,12.43615,
34.0046,12.4364,12.1401,80,80.079,0,1.056615,12.4364,
34.0579,12.4358,12.1409,80,80.075,0,1.056615,12.4358,
34.11125,12.4358,12.1408,80,80.079,0,1.056615,12.4358,
34.1646,12.4358,12.14,80,80.079,0,1.056615,12.4358,
34.2179,12.43615,12.1399,80,80.079,0,1.056615,12.43615,
34.27125,12.4356,12.1402,80,80.083,0,1.056615,12.4356,
34.3246,12.4364,12.1403,80,80.075,0,1.056615,12.4364,
34.3779,12.4351,12.1389,80,80.079,0,1.056615,12.4351,
34.43125,12.43615,12.14,80,80.075,0,1.056615,12.43615,
34.4846,12.4358,12.1405,80,80.079,0,1.056615,12.4358,
34.5379,12.43689,12.1388,80,80.075,0,1.056615,12.43689,
34.59125,12.4366,12.1405,80,80.079,0,1.056615,12.4366,
34.6446,12.4368,12.1399,80,80.075,0,1.056615,12.4368,
34.6979,12.4359,12.1399,80,80.083,0,1.056615,12.4359,
34.75125,12.4358,12.1409,80,80.079,0,1.056615,12.4358,
34.8046,12.43615,12.1402,80,80.079,0,1.056615,12.43615,
34.8579,12.4356,12.1406,80,80.079,0,1.056615,12.4356,
34.91125,12.43689,12.1397,80,80.079,0,1.056615,12.43689,
34.9646,12.4359,12.1408,80,80.079,0,1.056615,12.4359,
35.0179,12.436,12.14,80,80.079,0,1.056615,12.436,
35.07125,12.436,12.1404,80,80.083,0,1.056615,12.436,
35.1246,12.4352,12.1414,80,80.079,0,1.056615,12.4352,
35.1779,12.435,12.1407,80,80.079,0,1.056615,12.435,
35.23125,12.4359,12.1406,80,80.079,0,1.056615,12.4359,
35.2846,12.4355,12.1407,80,80.083,0,1.056615,12.4355,
35.3379,12.436,12.1406,80,80.079,0,1.056615,12.436,
35.39125,12.4357,12.141,80,80.079,0,1.056615,12.4357,
35.4446,12.4359,12.1403,80,80.079,0,1.056615,12.4359,
35.4979,12.4355,12.1407,80,80.075,0,1.056615,12.4355,
35.55125,12.4356,12.1401,80,80.079,0,1.056615,12.4356,
35.6046,12.4342,12.1405,80,80.075,0,1.056615,12.4342,
35.6579,12.4367,12.1405,80,80.075,0,1.056615,12.4367,
35.71125,12.4351,12.1401,80,80.079,0,1.056615,12.4351,
35.7646,12.4351,12.1403,80,80.075,0,1.056615,12.4351,
35.8179,12.4356,12.1406,80,80.079,0,1.056615,12.4356,
35.87125,12.4366,12.1405,80,80.083,0,1.056615,12.4366,
35.9246,12.4373,12.1402,80,80.079,0,1.056615,12.4373,
35.9779,12.4355,12.14,80,80.075,0,1.056615,12.4355,
36.03125,12.4349,12.1403,80,80.079,0,1.056615,12.4349,
36.0846,12.4368,12.14,80,80.079,0,1.056615,12.4368,
36.1379,12.437,12.14,80,80.079,0,1.056615,12.437,
36.19125,12.435,12.14,80,80.079,0,1.056615,12.435,
36.2446,12.43615,12.1391,80,80.079,0,1.056615,12.43615,
36.2979,12.4352,12.1409,80,80.079,0,1.056615,12.4352,
36.35125,12.4349,12.1407,80,80.079,0,1.056615,12.4349,
36.4046,12.436,12.1404,80,80.075,0,1.056615,12.436,
36.4579,12.4346,12.1408,80,80.079,0,1.056615,12.4346,
36.51125,12.4342,12.13977,80,80.075,0,1.056615,12.4342,
36.5646,12.4348,12.1407,80,80.079,0,1.056615,12.4348,
36.6179,12.436,12.1408,80,80.079,0,1.056615,12.436,
36.67125,12.4356,12.1407,80,80.079,0,1.056615,12.4356,
36.7246,12.4341,12.14,80,80.079,0,1.056615,12.4341,
36.7779,12.4338,12.141,80,80.083,0,1.056615,12.4338,
36.83125,12.43446,12.1407,80,80.079,0,1.056615,12.43446,
36.8846,12.4338,12.1406,80,80.079,0,1.056615,12.4338,
36.9379,12.4351,12.1406,80,80.083,0,1.056615,12.4351,
36.99125,12.435,12.1408,80,80.079,0,1.056615,12.435,
37.0446,12.4352,12.1411,80,80.075,0,1.056615,12.4352,
37.0979,12.4339,12.141,80,80.079,0,1.056615,12.4339,
37.15125,12.43372,12.1402,80,80.079,0,1.056615,12.43372,
37.2046,12.435,12.13977,80,80.079,0,1.056615,12.435,
37.2579,12.4349,12.1404,80,80.083,0,1.056615,12.4349,
37.31125,12.4355,12.1401,80,80.079,0,1.056615,12.4355,
37.3646,12.43615,12.1409,80,80.079,0,1.056615,12.43615,
37.4179,12.43372,12.14,80,80.075,0,1.056615,12.43372,
37.47125,12.4342,12.1406,80,80.075,0,1.056615,12.4342,
37.5246,12.4346,12.1403,80,80.079,0,1.056615,12.4346,
37.5779,12.4349,12.14,80,80.075,0,1.056615,12.4349,
37.63125,12.4342,12.1406,80,80.075,0,1.056615,12.4342,
37.6846,12.434,12.1403,80,80.083,0,1.056615,12.434,
37.7379,12.4344,12.1408,80,80.079,0,1.056615,12.4344,
37.79125,12.4348,12.1401,80,80.075,0,1.056615,12.4348,
37.8446,12.4339,12.13977,80,80.079,0,1.056615,12.4339,
37.8979,12.434,12.1414,80,80.079,0,1.056615,12.434,
37.93125,12.4346,12.141,80,80.079,0,1.056615,12.4346,