File: Raw_Data./Tensile Nozzle 0.4 mm/90 Degrees/LH0.1_90D_N0.4/Test 1.csv
Crosshead ,Crosshead ini,Load ,Load inin,Time ,Strain 1 ,Strain 2 ,Strain 3 ,Strain 4 ,PoissonRatio ,,,
0,0.000830078,0,0.003110862,0.115,-1.08E-05,-2.13E-05,-2.20E-05,3.14E-06,196.972,-0.000830078,0.000830078,-0.003110862
0.001513672,0.00234375,0.00157032,0.004681182,0.215,-1.31E-05,-5.68E-05,-2.14E-05,-2.28E-06,435.09,-0.000830078,,-0.003110862
0.003710938,0.004541016,0.001870623,0.004981485,0.315,1.11E-05,4.30E-05,-4.14E-05,-1.76E-05,387.128,-0.000830078,,-0.003110862
0.006738281,0.007568359,0.005846514,0.008957376,0.415,-8.77E-06,-5.52E-05,-2.25E-05,2.37E-06,628.954,-0.000830078,,-0.003110862
0.009716797,0.0105469,0.00724689,0.0103578,0.515,-1.64E-05,-4.28E-05,1.10E-05,1.07E-05,261.482,-0.000830078,,-0.003110862
0.0131836,0.0140137,0.0136477,0.0167586,0.615,-2.69E-05,-6.07E-05,3.00E-05,5.86E-05,225.849,-0.000830078,,-0.003110862
0.0164063,0.0172363,0.0163209,0.0194318,0.715,5.20E-05,-4.79E-05,5.86E-05,9.32E-05,-92.17,-0.000830078,,-0.003110862
0.0200195,0.0208496,0.0223777,0.0254886,0.815,8.37E-05,-6.61E-05,7.84E-05,0.000108042,-78.9462,-0.000830078,,-0.003110862
0.0233887,0.0242188,0.0243457,0.0274566,0.915,0.000109588,-9.97E-05,8.26E-05,0.000104694,-90.9494,-0.000830078,,-0.003110862
0.0273926,0.0282227,0.0301734,0.0332842,1.015,0.000109588,-9.97E-05,8.15E-05,0.000123838,-90.9494,-0.000830078,,-0.003110862
0.03129883,0.0321289,0.03615466,0.0392655,1.115,0.000128621,-0.00013725,0.000140219,0.000179993,-106.709,-0.000830078,,-0.003110862
0.0349121,0.0357422,0.0427189,0.0458297,1.215,0.000178203,-0.000178874,0.00016854,0.000212515,-100.377,-0.000830078,,-0.003110862
0.0384277,0.0392578,0.0465701,0.0496809,1.315,0.000201516,-0.00013496,0.000202647,0.000243706,-66.9724,-0.000830078,,-0.003110862
0.042041,0.0428711,0.0482132,0.0513241,1.415,0.000194843,-0.000198196,0.000223452,0.00025385,-101.721,-0.000830078,,-0.003110862
0.0456055,0.0464355,0.0548728,0.0579836,1.515,0.000241813,-0.000169678,0.000284621,0.000323617,-70.1691,-0.000830078,,-0.003110862
0.0488281,0.0496582,0.0610969,0.0642077,1.615,0.000289115,-0.000255063,0.000272764,0.00030832,-88.222,-0.000830078,,-0.003110862
0.0521973,0.0530273,0.0636352,0.0667461,1.715,0.000290183,-0.000219695,0.000304175,0.00032544,-75.7091,-0.000830078,,-0.003110862
0.0557129,0.056543,0.06629242,0.0694033,1.815,0.000324518,-0.000258168,0.000343318,0.00037557,-79.5543,-0.000830078,,-0.003110862
0.0595703,0.0604004,0.0751865,0.0782973,1.915,0.000348318,-0.000253042,0.000330262,0.000365632,-72.6468,-0.000830078,,-0.003110862
0.0631348,0.0639648,0.0790026,0.0821135,2.015,0.000347531,-0.000300586,0.000327271,0.000355495,-86.4919,-0.000830078,,-0.003110862
0.0667969,0.067627,0.0833877,0.0864985,2.115,0.000380131,-0.000292711,0.000403552,0.00042132,-77.0027,-0.000830078,,-0.003110862
0.0700684,0.0708984,0.0866798,0.0897907,2.215,0.000407379,-0.000313129,0.000436989,0.000451149,-76.8643,-0.000830078,,-0.003110862
0.0737305,0.07456055,0.0899989,0.0931097,2.315,0.000435484,-0.000285632,0.000438113,0.00045923,-65.5896,-0.000830078,,-0.003110862
0.07729492,0.078125,0.0991305,0.102241,2.415,0.000430034,-0.000313966,0.000451593,0.000469834,-73.0096,-0.000830078,,-0.003110862
0.080957,0.0817871,0.100217,0.103327,2.515,0.000498091,-0.000355947,0.000481775,0.000490627,-71.4622,-0.000830078,,-0.003110862
0.0841797,0.0850098,0.10595,0.109061,2.615,0.000509425,-0.000326794,0.000530753,0.000530627,-64.1496,-0.000830078,,-0.003110862
0.0875977,0.0884277,0.107818,0.110929,2.715,0.000546113,-0.000412169,0.000536571,0.000538484,-75.4732,-0.000830078,,-0.003110862
0.0907715,0.0916016,0.112249,0.11536,2.815,0.000568908,-0.000431898,0.000633249,0.000649274,-75.917,-0.000830078,,-0.003110862
0.09448242,0.0953125,0.119202,0.122313,2.915,0.000630237,-0.000383272,0.000671949,0.000653891,-60.8139,-0.000830078,,-0.003110862
0.0980469,0.098877,0.121823,0.124934,3.015,0.000669256,-0.000348561,0.000671949,0.000653891,-52.0819,-0.000830078,,-0.003110862
0.101318,0.102148,0.126379,0.12949,3.115,0.000669256,-0.000348561,0.000664407,0.000645664,-52.0819,-0.000830078,,-0.003110862
0.104346,0.105176,0.130555,0.133666,3.215,0.000744344,-0.000526726,0.000720215,0.00069542,-70.7638,-0.000830078,,-0.003110862
0.107861,0.108691,0.133041,0.136152,3.315,0.000781553,-0.000514794,0.000796239,0.000788685,-65.8681,-0.000830078,,-0.003110862
0.111475,0.112305,0.138103,0.141214,3.415,0.000799778,-0.00053424,0.000815669,0.000828125,-66.7985,-0.000830078,,-0.003110862
0.115088,0.115918,0.142921,0.146032,3.515,0.000814857,-0.000520883,0.000882847,0.00088556,-63.9232,-0.000830078,,-0.003110862
0.118652,0.119482,0.147252,0.150363,3.615,0.000867312,-0.000516449,0.000893397,0.000897709,-59.5459,-0.000830078,,-0.003110862
0.122168,0.122998,0.153382,0.156493,3.715,0.000899552,-0.000577935,0.000938548,0.000937649,-64.247,-0.000830078,,-0.003110862
0.125732,0.126563,0.157136,0.160247,3.815,0.000936384,-0.000553579,0.00095879,0.000959358,-59.1188,-0.000830078,,-0.003110862
0.129199,0.130029,0.162267,0.165378,3.915,0.000953513,-0.000578344,0.000964916,0.000960972,-60.654,-0.000830078,,-0.003110862
0.132617,0.133447,0.161463,0.164574,4.015,0.00096335,-0.000598432,0.00100154,0.00100474,-62.1199,-0.000830078,,-0.003110862
0.135596,0.136426,0.167844,0.170955,4.115,0.000974253,-0.000644585,0.0010158,0.00100536,-66.162,-0.000830078,,-0.003110862
0.138818,0.139648,0.173424,0.176534,4.215,0.000988095,-0.000646488,0.00102207,0.00102841,-65.4277,-0.000830078,,-0.003110862
0.141992,0.142822,0.177969,0.18108,4.315,0.00100124,-0.00063833,0.00104397,0.00106302,-63.7539,-0.000830078,,-0.003110862
0.145459,0.146289,0.180982,0.184093,4.415,0.00103328,-0.000667044,0.00107444,0.00108565,-64.556,-0.000830078,,-0.003110862
0.148877,0.149707,0.185655,0.188766,4.515,0.00104765,-0.00067704,0.00108212,0.00109535,-64.6246,-0.000830078,,-0.003110862
0.15249,0.15332,0.188565,0.191676,4.615,0.00104792,-0.000679833,0.00107515,0.00109362,-64.8745,-0.000830078,,-0.003110862
0.155957,0.156787,0.192655,0.195765,4.715,0.00110586,-0.000705327,0.00114584,0.00117416,-63.7809,-0.000830078,,-0.003110862
0.159863,0.160693,0.198038,0.201149,4.815,0.00111339,-0.000702698,0.00115937,0.00117981,-63.1134,-0.000830078,,-0.003110862
0.163379,0.164209,0.202345,0.205456,4.915,0.00114051,-0.000713185,0.00118331,0.00121487,-62.5321,-0.000830078,,-0.003110862
0.166797,0.167627,0.209019,0.21213,5.015,0.00117158,-0.000719965,0.00118331,0.00121487,-61.4525,-0.000830078,,-0.003110862
0.169482,0.170313,0.211735,0.214846,5.115,0.00121588,-0.000780742,0.00124118,0.00126988,-64.2121,-0.000830078,,-0.003110862
0.172607,0.173437,0.214544,0.217655,5.215,0.00123103,-0.000769768,0.00125267,0.00127771,-62.5304,-0.000830078,,-0.003110862
0.175781,0.176611,0.218641,0.221752,5.315,0.00126527,-0.000736006,0.00126383,0.00128534,-58.1699,-0.000830078,,-0.003110862
0.179346,0.180176,0.221654,0.224765,5.415,0.00129257,-0.000763756,0.00131206,0.00135271,-59.0882,-0.000830078,,-0.003110862
0.182373,0.183203,0.224989,0.2281,5.515,0.00130973,-0.00078849,0.00132766,0.00135957,-60.2025,-0.000830078,,-0.003110862
0.185742,0.186572,0.228284,0.231395,5.615,0.0013451,-0.000804921,0.00137257,0.00141165,-59.841,-0.000830078,,-0.003110862
0.18916,0.18999,0.234007,0.237117,5.715,0.00136306,-0.000803095,0.00139152,0.00142523,-58.9185,-0.000830078,,-0.003110862
0.193066,0.193896,0.238775,0.241886,5.815,0.00143451,-0.000839566,0.00147258,0.0015153,-58.5263,-0.000830078,,-0.003110862
0.196777,0.197607,0.244398,0.247509,5.915,0.00145897,-0.000853978,0.00149218,0.00153104,-58.5329,-0.000830078,,-0.003110862
0.200439,0.20127,0.247471,0.250582,6.015,0.00150964,-0.000863344,0.0015174,0.00156768,-57.1887,-0.000830078,,-0.003110862
0.203271,0.204102,0.250381,0.253492,6.115,0.00153167,-0.000893613,0.00159504,0.00163388,-58.3424,-0.000830078,,-0.003110862
0.206494,0.207324,0.253258,0.256369,6.215,0.00157637,-0.000835099,0.00159765,0.00165588,-52.9761,-0.000830078,,-0.003110862
0.209473,0.210303,0.259029,0.26214,6.315,0.00159124,-0.000856386,0.00161142,0.00164441,-53.8188,-0.000830078,,-0.003110862
0.212842,0.213672,0.261875,0.264986,6.415,0.00159704,-0.000858625,0.00161221,0.00164981,-53.7635,-0.000830078,,-0.003110862
0.215869,0.216699,0.264894,0.268004,6.515,0.00161187,-0.00096177,0.00164025,0.00168483,-59.668,-0.000830078,,-0.003110862
0.219238,0.220068,0.269875,0.272985,6.615,0.00163029,-0.00094621,0.0016645,0.00170344,-58.0394,-0.000830078,,-0.003110862
0.222412,0.223242,0.272842,0.275952,6.715,0.00165372,-0.000973884,0.00167531,0.00171471,-58.8905,-0.000830078,,-0.003110862
0.226025,0.226855,0.276183,0.279294,6.815,0.00166843,-0.000974489,0.00170755,0.00173981,-58.4075,-0.000830078,,-0.003110862
0.229736,0.230566,0.281273,0.284384,6.915,0.00167541,-0.000969947,0.00174264,0.00178375,-57.8931,-0.000830078,,-0.003110862
0.233398,0.234229,0.28242,0.28553,7.015,0.0017385,-0.000977222,0.00177063,0.00180686,-56.2106,-0.000830078,,-0.003110862
0.236475,0.237305,0.287986,0.291097,7.115,0.0017385,-0.000977222,0.00181947,0.00183944,-56.2106,-0.000830078,,-0.003110862
0.2399414,0.240771,0.291163,0.294274,7.215,0.00181976,-0.00102338,0.00186366,0.00187554,-56.2371,-0.000830078,,-0.003110862
0.243164,0.243994,0.295383,0.298494,7.315,0.00185137,-0.00113054,0.00185843,0.00188718,-61.065,-0.000830078,,-0.003110862
0.246533,0.247363,0.295694,0.298805,7.415,0.00183662,-0.00111716,0.00187026,0.00189569,-60.827,-0.000830078,,-0.003110862
0.249316,0.250146,0.302798,0.3059086,7.515,0.00185825,-0.00114622,0.00192645,0.0019358,-61.6828,-0.000830078,,-0.003110862
0.252539,0.253369,0.306181,0.309292,7.615,0.00188936,-0.00110718,0.00198285,0.0019957,-58.6008,-0.000830078,,-0.003110862
0.255762,0.256592,0.30627,0.309381,7.715,0.00195019,-0.00112363,0.00202713,0.00204098,-57.6164,-0.000830078,,-0.003110862
0.259375,0.260205,0.314792,0.317903,7.815,0.0019961,-0.00111569,0.00205085,0.00207042,-55.8935,-0.000830078,,-0.003110862
0.262744,0.263574,0.316159,0.31927,7.915,0.00203382,-0.00116467,0.00209249,0.00210356,-57.2651,-0.000830078,,-0.003110862
0.266211,0.267041,0.31905,0.32216,8.015,0.00206437,-0.00120144,0.00212239,0.00212866,-58.1989,-0.000830078,,-0.003110862
0.269287,0.270117,0.322115,0.325226,8.115,0.00210047,-0.00125805,0.00213532,0.00213792,-59.8937,-0.000830078,,-0.003110862
0.272754,0.273584,0.326199,0.32931,8.215,0.00209319,-0.00122628,0.00215752,0.00215741,-58.5843,-0.000830078,,-0.003110862
0.276172,0.277002,0.331955,0.335065,8.315,0.00211076,-0.00117489,0.00218276,0.0021835,-55.6619,-0.000830078,,-0.003110862
0.279785,0.280615,0.334982,0.338092,8.415,0.00218485,-0.00125213,0.00223066,0.00224195,-57.3097,-0.000830078,,-0.003110862
0.28291,0.28374,0.334803,0.337914,8.515,0.00219782,-0.00123627,0.00225768,0.00226523,-56.2498,-0.000830078,,-0.003110862
0.286279,0.287109,0.339995,0.343106,8.615,0.00223633,-0.00123142,0.00230133,0.00231369,-55.0643,-0.000830078,,-0.003110862
0.289355,0.290186,0.344637,0.347748,8.715,0.00225306,-0.00121683,0.00233871,0.00234446,-54.0079,-0.000830078,,-0.003110862
0.292871,0.293701,0.348148,0.351259,8.815,0.00230132,-0.00123043,0.00235735,0.00236118,-53.4663,-0.000830078,,-0.003110862
0.296289,0.297119,0.352127,0.355238,8.915,0.00231961,-0.00120087,0.00237635,0.00239441,-51.7703,-0.000830078,,-0.003110862
0.299756,0.300586,0.354292,0.357403,9.015,0.00232377,-0.00126756,0.00240222,0.00241944,-54.5476,-0.000830078,,-0.003110862
0.302588,0.303418,0.357046,0.360156,9.115,0.00236472,-0.00126191,0.00243685,0.00245305,-53.364,-0.000830078,,-0.003110862
0.305859,0.306689,0.359496,0.362607,9.215,0.00237297,-0.0012778,0.00246548,0.00248222,-53.8481,-0.000830078,,-0.003110862
0.30918,0.31001,0.365424,0.368535,9.315,0.00240882,-0.00129108,0.00247654,0.00249982,-53.598,-0.000830078,,-0.003110862
0.312793,0.313623,0.370128,0.373239,9.415,0.00241577,-0.00132658,0.00249694,0.00251642,-54.9133,-0.000830078,,-0.003110862
0.316162,0.316992,0.370237,0.373348,9.515,0.00246377,-0.00133015,0.00252403,0.00254717,-53.9884,-0.000830078,,-0.003110862
0.319824,0.320654,0.374938,0.378049,9.615,0.00248248,-0.00132668,0.00255305,0.00257827,-53.4417,-0.000830078,,-0.003110862
0.323047,0.323877,0.379125,0.382235,9.715,0.00250164,-0.0013484,0.00256675,0.00258598,-53.9006,-0.000830078,,-0.003110862
0.326611,0.327441,0.382837,0.385948,9.815,0.00254134,-0.00136824,0.00261971,0.00265738,-53.8393,-0.000830078,,-0.003110862
0.329785,0.330615,0.386972,0.390083,9.915,0.0025751,-0.00137797,0.00263765,0.00267288,-53.5113,-0.000830078,,-0.003110862
0.333105,0.333936,0.388656,0.391767,10.015,0.00261435,-0.00141193,0.00266922,0.00270249,-54.0069,-0.000830078,,-0.003110862
0.335986,0.336816,0.392795,0.395906,10.115,0.00262055,-0.00140887,0.00272901,0.00271555,-53.7624,-0.000830078,,-0.003110862
0.339209,0.340039,0.393592,0.396703,10.215,0.0026855,-0.00141617,0.00272428,0.00275739,-52.7339,-0.000830078,,-0.003110862
0.342285,0.343115,0.400554,0.403665,10.315,0.00269941,-0.00143529,0.00274714,0.00278106,-53.1705,-0.000830078,,-0.003110862
0.345703,0.346533,0.403166,0.406276,10.415,0.00271907,-0.00145741,0.00276467,0.00280207,-53.5996,-0.000830078,,-0.003110862
0.349121,0.349951,0.406655,0.409766,10.515,0.00275356,-0.00145141,0.00282213,0.00286927,-52.7103,-0.000830078,,-0.003110862
0.352686,0.353516,0.406442,0.409553,10.615,0.00278266,-0.00146575,0.00285082,0.00289029,-52.6744,-0.000830078,,-0.003110862
0.356055,0.356885,0.411429,0.41454,10.715,0.00281637,-0.0014818,0.00287704,0.0029247,-52.6138,-0.000830078,,-0.003110862
0.359912,0.360742,0.417865,0.420976,10.815,0.00283983,-0.0014983,0.00289767,0.00295199,-52.7602,-0.000830078,,-0.003110862
0.363379,0.364209,0.421838,0.424949,10.915,0.00288923,-0.0015152,0.00292548,0.00297198,-52.443,-0.000830078,,-0.003110862
0.366748,0.367578,0.421862,0.424973,11.015,0.00290614,-0.00153857,0.00296271,0.00300487,-52.942,-0.000830078,,-0.003110862
0.369385,0.370215,0.423818,0.426928,11.115,0.00292442,-0.00153209,0.00297577,0.00302124,-52.3895,-0.000830078,,-0.003110862
0.37251,0.37334,0.4275,0.430611,11.215,0.00293945,-0.00153209,0.00301226,0.00306942,-52.1217,-0.000830078,,-0.003110862
0.375732,0.376563,0.430582,0.433693,11.315,0.00297456,-0.00156513,0.00302955,0.0030881,-52.6172,-0.000830078,,-0.003110862
0.379248,0.380078,0.434336,0.437447,11.415,0.003011,-0.00156826,0.0030643,0.00311039,-52.0844,-0.000830078,,-0.003110862
0.382324,0.383154,0.435355,0.438466,11.515,0.00301711,-0.00158498,0.00307585,0.0031361,-52.5331,-0.000830078,,-0.003110862
0.385693,0.386523,0.437893,0.441004,11.615,0.00304974,-0.00157346,0.00309414,0.00315309,-51.5933,-0.000830078,,-0.003110862
0.389111,0.389941,0.441826,0.444937,11.715,0.00308106,-0.001596,0.00314584,0.00318972,-51.8004,-0.000830078,,-0.003110862
0.39292,0.39375,0.444713,0.447823,11.815,0.00309984,-0.00162474,0.00316061,0.00321651,-52.4137,-0.000830078,,-0.003110862
0.39668,0.39751,0.449179,0.45229,11.915,0.00312391,-0.00162593,0.00319129,0.00324378,-52.0479,-0.000830078,,-0.003110862
0.400293,0.401123,0.456027,0.459137,12.015,0.00314257,-0.0016329,0.00322551,0.00327466,-51.9607,-0.000830078,,-0.003110862
0.403174,0.404004,0.453933,0.457044,12.115,0.00320338,-0.00160887,0.00326542,0.00331977,-50.2241,-0.000830078,,-0.003110862
0.406348,0.407178,0.456647,0.459758,12.215,0.00322326,-0.00163558,0.00328385,0.00332499,-50.743,-0.000830078,,-0.003110862
0.409424,0.410254,0.459564,0.462675,12.315,0.00325763,-0.0016725,0.00330765,0.00334048,-51.341,-0.000830078,,-0.003110862
0.412793,0.413623,0.464266,0.467377,12.415,0.00330159,-0.00169479,0.00336028,0.00338571,-51.3325,-0.000830078,,-0.003110862
0.41582,0.41665,0.465253,0.468364,12.515,0.00331994,-0.00167868,0.00336921,0.00340265,-50.5636,-0.000830078,,-0.003110862
0.419189,0.42002,0.467097,0.470208,12.615,0.00335373,-0.00170229,0.00340168,0.00341878,-50.7581,-0.000830078,,-0.003110862
0.422363,0.423193,0.46763,0.470741,12.715,0.0033713,-0.00169305,0.00339065,0.00340839,-50.2195,-0.000830078,,-0.003110862
0.426074,0.426904,0.47179,0.474901,12.815,0.00339884,-0.00172446,0.00350261,0.00351178,-50.7367,-0.000830078,,-0.003110862
0.429736,0.430566,0.476272,0.479383,12.915,0.00344316,-0.00172389,0.00352647,0.00354586,-50.0671,-0.000830078,,-0.003110862
0.433398,0.434229,0.477654,0.480765,13.015,0.00350409,-0.0017411,0.00357354,0.00358473,-49.6877,-0.000830078,,-0.003110862
0.436426,0.437256,0.479358,0.482468,13.115,0.00353971,-0.00176193,0.00362494,0.00363221,-49.7761,-0.000830078,,-0.003110862
0.43999,0.44082,0.482322,0.485433,13.215,0.00356948,-0.00177259,0.00362482,0.00364053,-49.6596,-0.000830078,,-0.003110862
0.443262,0.444092,0.485234,0.488344,13.315,0.00353507,-0.00179279,0.00363592,0.00365086,-50.7144,-0.000830078,,-0.003110862
0.446582,0.447412,0.485765,0.488876,13.415,0.0035551,-0.00178651,0.00369533,0.0037145,-50.252,-0.000830078,,-0.003110862
0.449414,0.450244,0.489936,0.493047,13.515,0.00370352,-0.0018101,0.00379146,0.0038053,-48.8751,-0.000830078,,-0.003110862
0.452734,0.453564,0.493124,0.496234,13.615,0.00370869,-0.00183683,0.00377377,0.00381136,-49.5277,-0.000830078,,-0.003110862
0.456006,0.456836,0.491898,0.495009,13.715,0.00368526,-0.00181586,0.00378821,0.00381228,-49.2736,-0.000830078,,-0.003110862
0.459717,0.460547,0.499915,0.503026,13.815,0.00370061,-0.0018556,0.00386281,0.00390989,-50.1431,-0.000830078,,-0.003110862
0.463037,0.463867,0.499873,0.502984,13.915,0.00376148,-0.00184222,0.00389283,0.00394095,-48.9759,-0.000830078,,-0.003110862
0.466553,0.467383,0.503147,0.506258,14.015,0.00381447,-0.0018413,0.00385952,0.00388327,-48.2715,-0.000830078,,-0.003110862
0.46958,0.47041,0.504339,0.50745,14.115,0.00376999,-0.0018824,0.00387598,0.00389756,-49.9312,-0.000830078,,-0.003110862
0.473145,0.473975,0.509118,0.512229,14.215,0.00384469,-0.00188488,0.00393334,0.00396978,-49.0255,-0.000830078,,-0.003110862
0.476514,0.477344,0.509735,0.512846,14.315,0.00386792,-0.00191818,0.00395806,0.00398158,-49.592,-0.000830078,,-0.003110862
0.480127,0.480957,0.512032,0.515143,14.415,0.00386674,-0.00190095,0.00395357,0.00401224,-49.1616,-0.000830078,,-0.003110862
0.483203,0.484033,0.516719,0.51983,14.515,0.0038969,-0.0019593,0.00398701,0.00402519,-50.2784,-0.000830078,,-0.003110862
0.486572,0.487402,0.516284,0.519395,14.615,0.00393557,-0.00193547,0.00403178,0.00406933,-49.1789,-0.000830078,,-0.003110862
0.489648,0.490479,0.521822,0.524933,14.715,0.00392151,-0.00196406,0.00401898,0.00406698,-50.0843,-0.000830078,,-0.003110862
0.493164,0.493994,0.519662,0.522773,14.815,0.00394898,-0.00196615,0.00401898,0.00406698,-49.7888,-0.000830078,,-0.003110862
0.496533,0.497363,0.524384,0.527495,14.915,0.0039962,-0.00198832,0.00407018,0.00412411,-49.7553,-0.000830078,,-0.003110862
0.5,0.50083,0.527099,0.53021,15.015,0.0040295,-0.00200718,0.00408792,0.00413384,-49.8121,-0.000830078,,-0.003110862
0.502783,0.503613,0.527973,0.531083,15.115,0.00405436,-0.00198052,0.00410806,0.00414843,-48.8491,-0.000830078,,-0.003110862
0.506055,0.506885,0.529723,0.532834,15.215,0.00407846,-0.0019715,0.00415432,0.00420092,-48.3393,-0.000830078,,-0.003110862
0.509375,0.510205,0.533754,0.536864,15.315,0.00407846,-0.00199129,0.00415432,0.00420092,-48.8246,-0.000830078,,-0.003110862
0.512988,0.513818,0.53591,0.539021,15.415,0.00417117,-0.00196725,0.00423847,0.00427955,-47.163,-0.000830078,,-0.003110862
0.516309,0.517139,0.536153,0.539263,15.515,0.00419852,-0.00196982,0.00426982,0.004305,-46.917,-0.000830078,,-0.003110862
0.519971,0.520801,0.53516,0.538271,15.615,0.00420083,-0.00200037,0.00426328,0.00435087,-47.6184,-0.000830078,,-0.003110862
0.523193,0.524023,0.539055,0.542166,15.715,0.00424269,-0.0020392,0.00430594,0.004366,-48.0638,-0.000830078,,-0.003110862
0.526758,0.527588,0.540967,0.544078,15.815,0.00426877,-0.00203203,0.0043118,0.00437929,-47.6022,-0.000830078,,-0.003110862
0.529932,0.530762,0.542225,0.545336,15.915,0.00426651,-0.00205629,0.00433234,0.00437403,-48.1961,-0.000830078,,-0.003110862
0.533301,0.534131,0.071666,0.0747769,16.015,0.00427225,-0.00206766,0.00433324,0.00436419,-48.3974,-0.000830078,,-0.003110862
0.533545,0.534375,0.0194626,0.0225735,16.022,0.00429608,-0.00207896,0.00433324,0.00436419,-48.392,-0.000830078,,-0.003110862