File: Raw_Data./Tensile Nozzle 0.4 mm/90 Degrees/LH0.1_90D_N0.4/Test 5.csv
Crosshead ,Crosshead ini,Load ,Load ini,Time ,Strain 1 ,Strain 2 ,Strain 3 ,Strain 4 ,PoissonRatio ,,,
0,0.000878906,0,-0.0303373,0.113,1.48E-05,7.09E-05,1.48E-05,-2.56E-06,478.147,-0.000878906,0.000878906,0.0303373
0.0015625,0.002441406,0.001439859,-0.0288974,0.213,1.03E-05,-2.86E-07,-9.28E-06,-2.46E-05,-2.77392,-0.000878906,,0.0303373
0.00390625,0.004785156,0.004835552,-0.0255017,0.313,-1.46E-05,-3.24E-05,-9.78E-06,-1.22E-05,222.403,-0.000878906,,0.0303373
0.006933594,0.0078125,0.0092962,-0.0210411,0.413,9.71E-06,2.40E-05,1.34E-05,8.72E-06,247.612,-0.000878906,,0.0303373
0.009960938,0.0108398,0.0129506,-0.01738669,0.513,3.11E-05,-2.61E-05,4.46E-06,1.80E-05,-83.8189,-0.000878906,,0.0303373
0.0134277,0.0143066,0.0170364,-0.0133009,0.613,6.30E-05,-5.44E-05,6.09E-05,5.53E-05,-86.2973,-0.000878906,,0.0303373
0.0166504,0.0175293,0.0210068,-0.009330455,0.713,9.18E-05,-5.26E-05,7.81E-05,6.91E-05,-57.3369,-0.000878906,,0.0303373
0.0202148,0.0210938,0.0279151,-0.002422168,0.813,0.000110087,-8.79E-05,0.000112956,0.000104233,-79.8344,-0.000878906,,0.0303373
0.023584,0.02446289,0.0311134,0.00077615,0.913,0.000168335,-0.000107779,0.000151285,0.000136876,-64.0265,-0.000878906,,0.0303373
0.02763672,0.0285156,0.0335719,0.003234608,1.013,0.000185513,-0.000110833,0.000182358,0.000176287,-59.7441,-0.000878906,,0.0303373
0.031543,0.0324219,0.0395922,0.009254948,1.113,0.000208697,-0.000102911,0.000200743,0.000203805,-49.3112,-0.000878906,,0.0303373
0.0351074,0.03598633,0.046561,0.0162238,1.213,0.000286647,-0.000125699,0.000234181,0.000290746,-43.8515,-0.000878906,,0.0303373
0.0385742,0.0394531,0.04768038,0.0173431,1.313,0.000314673,-0.000125256,0.000319086,0.000321078,-39.8051,-0.000878906,,0.0303373
0.0421387,0.0430176,0.05459313,0.0242559,1.413,0.000364995,-0.000159381,0.00033752,0.000340166,-43.6666,-0.000878906,,0.0303373
0.0457031,0.04658203,0.0564419,0.0261046,1.513,0.000374053,-0.000170415,0.000361048,0.000360447,-45.5591,-0.000878906,,0.0303373
0.048877,0.0497559,0.0616702,0.0313329,1.613,0.000406235,-0.00020901,0.00038501,0.000378112,-51.4505,-0.000878906,,0.0303373
0.0522949,0.05317383,0.0652838,0.0349465,1.713,0.000425228,-0.000206638,0.000412737,0.000419354,-48.5946,-0.000878906,,0.0303373
0.0557129,0.0565918,0.0685844,0.0382472,1.813,0.000439875,-0.000197757,0.000431073,0.000430737,-44.9575,-0.000878906,,0.0303373
0.0595703,0.06044922,0.07372973,0.0433925,1.913,0.000485771,-0.000191816,0.000442887,0.00047505,-39.4869,-0.000878906,,0.0303373
0.0631836,0.0640625,0.0769174,0.04658017,2.013,0.000497953,-0.000239495,0.00048272,0.000491558,-48.0959,-0.000878906,,0.0303373
0.0668457,0.0677246,0.0834344,0.0530971,2.113,0.000541623,-0.00023379,0.000506933,0.000504974,-43.1647,-0.000878906,,0.0303373
0.07006836,0.0709473,0.08687,0.0565327,2.213,0.000558008,-0.000152166,0.000542633,0.000540702,-27.2695,-0.000878906,,0.0303373
0.0736816,0.07456055,0.0917967,0.0614594,2.313,0.000595129,-0.000137332,0.000559706,0.000549388,-23.076,-0.000878906,,0.0303373
0.0772461,0.078125,0.0933127,0.0629754,2.413,0.000622829,-0.000195181,0.000573013,0.000589324,-31.3378,-0.000878906,,0.0303373
0.0809082,0.0817871,0.10023,0.0698923,2.513,0.00065262,-0.000198203,0.000616935,0.000607638,-30.3704,-0.000878906,,0.0303373
0.0841309,0.0850098,0.103013,0.0726758,2.613,0.000688764,-0.000222392,0.000647565,0.000654727,-32.2886,-0.000878906,,0.0303373
0.0875,0.0883789,0.10833,0.0779924,2.713,0.000714456,-0.000217537,0.000701183,0.000695018,-30.4479,-0.000878906,,0.0303373
0.0907227,0.0916016,0.112398,0.0820602,2.813,0.000788117,-0.00020152,0.000744322,0.000724396,-25.5698,-0.000878906,,0.0303373
0.0944336,0.0953125,0.117169,0.0868319,2.913,0.00080472,-0.00024248,0.000774128,0.000750304,-30.1322,-0.000878906,,0.0303373
0.0979492,0.0988281,0.121794,0.0914567,3.013,0.000858557,-0.000264965,0.000790377,0.000766836,-30.8617,-0.000878906,,0.0303373
0.1012207,0.1021,0.125463,0.0951259,3.113,0.000879382,-0.000271196,0.000838887,0.000835016,-30.8394,-0.000878906,,0.0303373
0.104248,0.105127,0.128968,0.098631,3.213,0.000910509,-0.000279623,0.000878079,0.000861132,-30.7106,-0.000878906,,0.0303373
0.107764,0.108643,0.133965,0.103628,3.313,0.000942689,-0.000295115,0.000896189,0.000909442,-31.3057,-0.000878906,,0.0303373
0.111377,0.112256,0.137676,0.107339,3.413,0.000982782,-0.000333096,0.000949332,0.000934586,-33.8932,-0.000878906,,0.0303373
0.11499,0.115869,0.140174,0.109837,3.513,0.00102276,-0.000342184,0.000972432,0.000961591,-33.4569,-0.000878906,,0.0303373
0.118555,0.119434,0.142872,0.112535,3.613,0.0010322,-0.000349333,0.00100855,0.00100104,-33.8435,-0.000878906,,0.0303373
0.122021,0.1229,0.149579,0.119242,3.713,0.00107419,-0.000349481,0.00103332,0.00102021,-32.5344,-0.000878906,,0.0303373
0.125586,0.126465,0.152945,0.122608,3.813,0.0010824,-0.000394083,0.0010533,0.00105422,-36.4083,-0.000878906,,0.0303373
0.129053,0.129932,0.15435,0.124013,3.913,0.00110408,-0.000388654,0.00107172,0.00106454,-35.2016,-0.000878906,,0.0303373
0.132471,0.13335,0.162446,0.132109,4.013,0.00114375,-0.000404455,0.00108764,0.00110465,-35.3622,-0.000878906,,0.0303373
0.135449,0.136328,0.165939,0.135602,4.113,0.00116041,-0.000437254,0.00112366,0.00112325,-37.681,-0.000878906,,0.0303373
0.138623,0.139502,0.169145,0.138808,4.213,0.00121146,-0.000454209,0.00115816,0.00114302,-37.4927,-0.000878906,,0.0303373
0.141846,0.142725,0.171978,0.14164,4.313,0.00121146,-0.000468814,0.00116961,0.0011584,-38.6983,-0.000878906,,0.0303373
0.145264,0.146143,0.176163,0.145826,4.413,0.00124228,-0.000483941,0.00117823,0.00117038,-38.9559,-0.000878906,,0.0303373
0.14873,0.149609,0.17979,0.149453,4.513,0.00126474,-0.000517521,0.00119888,0.00121877,-40.9192,-0.000878906,,0.0303373
0.152295,0.153174,0.182504,0.152167,4.613,0.00128211,-0.000529057,0.00123745,0.00122888,-41.2646,-0.000878906,,0.0303373
0.155811,0.156689,0.189161,0.158824,4.713,0.00129837,-0.000542139,0.00124475,0.00123927,-41.7554,-0.000878906,,0.0303373
0.159668,0.160547,0.191904,0.161567,4.813,0.00130787,-0.000560644,0.00125871,0.0012499,-42.867,-0.000878906,,0.0303373
0.163232,0.164111,0.196436,0.166098,4.913,0.00139629,-0.000577477,0.00129647,0.00128649,-41.358,-0.000878906,,0.0303373
0.166602,0.16748,0.202958,0.17262,5.013,0.00143006,-0.000591365,0.00137546,0.00136251,-41.3525,-0.000878906,,0.0303373
0.169336,0.170215,0.204281,0.173944,5.113,0.00149206,-0.000604716,0.00140418,0.00139996,-40.5289,-0.000878906,,0.0303373
0.172461,0.17334,0.20773,0.177393,5.213,0.00152733,-0.00060511,0.00144234,0.0014586,-39.6188,-0.000878906,,0.0303373
0.175635,0.176514,0.21249,0.182152,5.313,0.0015677,-0.000598796,0.00151274,0.0014988,-38.1958,-0.000878906,,0.0303373
0.17915,0.180029,0.21575,0.185413,5.413,0.0015893,-0.000625347,0.00152208,0.00151939,-39.3473,-0.000878906,,0.0303373
0.182227,0.183105,0.218129,0.187792,5.513,0.00160898,-0.000560006,0.00155753,0.00153819,-34.805,-0.000878906,,0.0303373
0.185596,0.186475,0.222518,0.19218,5.613,0.00166979,-0.000541425,0.00157902,0.00156674,-32.4247,-0.000878906,,0.0303373
0.189014,0.189893,0.2250529,0.194716,5.713,0.0016844,-0.000560158,0.00163103,0.00161739,-33.2556,-0.000878906,,0.0303373
0.1928711,0.19375,0.232871,0.202534,5.813,0.00170321,-0.000561793,0.0016481,0.001633,-32.9844,-0.000878906,,0.0303373
0.196631,0.19751,0.233519,0.203182,5.913,0.00173225,-0.000548036,0.00165633,0.00167522,-31.6372,-0.000878906,,0.0303373
0.200293,0.201172,0.238116,0.207779,6.013,0.00177923,-0.000570984,0.00172697,0.00171392,-32.0916,-0.000878906,,0.0303373
0.203125,0.204004,0.244075,0.213737,6.113,0.00182183,-0.000575083,0.00174519,0.00174584,-31.5662,-0.000878906,,0.0303373
0.206299,0.207178,0.247038,0.216701,6.213,0.00183552,-0.000595213,0.00177805,0.00175866,-32.4275,-0.000878906,,0.0303373
0.209326,0.210205,0.24899,0.218652,6.313,0.00184814,-0.000615417,0.00178782,0.0017684,-33.2993,-0.000878906,,0.0303373
0.212695,0.213574,0.253604,0.223267,6.413,0.00184814,-0.000635244,0.00179461,0.00178745,-34.3721,-0.000878906,,0.0303373
0.215723,0.216602,0.254635,0.224298,6.513,0.00191289,-0.000642499,0.00181751,0.00180686,-33.58787,-0.000878906,,0.0303373
0.219092,0.219971,0.26036,0.230022,6.613,0.00191709,-0.000658901,0.0018589,0.00185477,-34.3699,-0.000878906,,0.0303373
0.222266,0.223145,0.264109,0.233771,6.713,0.00193876,-0.000681268,0.00188393,0.00187736,-35.1394,-0.000878906,,0.0303373
0.225879,0.226758,0.264242,0.233904,6.813,0.00197831,-0.000675954,0.00190744,0.00190831,-34.1683,-0.000878906,,0.0303373
0.22959,0.230469,0.266384,0.236047,6.913,0.00199847,-0.000674352,0.00193287,0.00192255,-33.7434,-0.000878906,,0.0303373
0.233252,0.234131,0.27051,0.240173,7.013,0.00203694,-0.000674465,0.00194725,0.00192787,-33.1117,-0.000878906,,0.0303373
0.236328,0.237207,0.277489,0.247152,7.113,0.00206918,-0.000750191,0.00199362,0.00197064,-36.2555,-0.000878906,,0.0303373
0.239795,0.240674,0.280865,0.250528,7.213,0.00211956,-0.000801288,0.00201608,0.0019906,-37.8044,-0.000878906,,0.0303373
0.243018,0.243896,0.286106,0.255768,7.313,0.00212767,-0.000829901,0.00203351,0.00201839,-39.0052,-0.000878906,,0.0303373
0.246387,0.247266,0.287136,0.256799,7.413,0.00214429,-0.000808854,0.00206404,0.00203358,-37.7213,-0.000878906,,0.0303373
0.249219,0.250098,0.290971,0.260634,7.513,0.00220327,-0.000801356,0.00210123,0.00208005,-36.3712,-0.000878906,,0.0303373
0.252393,0.253271,0.292626,0.262288,7.613,0.00220884,-0.000786591,0.00212485,0.00208999,-35.611,-0.000878906,,0.0303373
0.255615,0.256494,0.294977,0.264639,7.713,0.0022428,-0.000810741,0.00215225,0.00210813,-36.1486,-0.000878906,,0.0303373
0.259229,0.260107,0.300351,0.270013,7.813,0.00231912,-0.000861279,0.00226379,0.00220432,-37.1382,-0.000878906,,0.0303373
0.262598,0.263477,0.304151,0.273814,7.913,0.00239227,-0.000853557,0.00230447,0.00224218,-35.6798,-0.000878906,,0.0303373
0.266113,0.266992,0.305224,0.274886,8.013,0.00241758,-0.000944403,0.00234033,0.00233384,-39.064,-0.000878906,,0.0303373
0.269189,0.270068,0.307247,0.27691,8.113,0.00245282,-0.000882717,0.00243965,0.00238976,-35.9878,-0.000878906,,0.0303373
0.272607,0.273486,0.312794,0.282456,8.213,0.00256428,-0.000780423,0.00247988,0.002507,-30.4344,-0.000878906,,0.0303373
0.276025,0.276904,0.316111,0.285774,8.313,0.00259545,-0.000794572,0.00260277,0.00255379,-30.614,-0.000878906,,0.0303373
0.279687,0.280566,0.318634,0.288297,8.413,0.00262167,-0.000805606,0.00263704,0.00258044,-30.7287,-0.000878906,,0.0303373
0.282812,0.283691,0.320367,0.290029,8.513,0.00267847,-0.000809269,0.00270462,0.00264173,-30.2139,-0.000878906,,0.0303373
0.286133,0.287012,0.32368,0.293343,8.613,0.00274121,-0.000816456,0.00275385,0.00269342,-29.7845,-0.000878906,,0.0303373
0.289209,0.290088,0.325812,0.295475,8.713,0.00275112,-0.000898728,0.002776,0.00273716,-32.6677,-0.000878906,,0.0303373
0.292725,0.293604,0.326513,0.296176,8.813,0.00277744,-0.000893092,0.00282418,0.00275838,-32.1552,-0.000878906,,0.0303373
0.296143,0.297021,0.331224,0.300887,8.913,0.00281147,-0.000868187,0.00284323,0.00280615,-30.88018,-0.000878906,,0.0303373
0.299609,0.300488,0.333399,0.303062,9.013,0.00285831,-0.000920522,0.00292504,0.00286363,-32.2051,-0.000878906,,0.0303373
0.30249,0.303369,0.337103,0.306766,9.113,0.00291527,-0.000869912,0.00295711,0.0028913,-29.8398,-0.000878906,,0.0303373
0.305762,0.306641,0.337917,0.30758,9.213,0.00293833,-0.000856988,0.00303015,0.00294981,-29.1658,-0.000878906,,0.0303373
0.309082,0.309961,0.341804,0.311467,9.313,0.00301529,-0.000792646,0.0030638,0.00297842,-26.2876,-0.000878906,,0.0303373
0.312744,0.313623,0.167034,0.136696,9.413,0.00302999,-0.000825127,0.0031261,0.00305567,-27.232,-0.000878906,,0.0303373
0.316113,0.316992,0.166552,0.136214,9.513,0.00307078,-0.000808991,0.00322586,0.00311872,-26.3448,-0.000878906,,0.0303373
0.319775,0.320654,0.168894,0.138557,9.613,0.00463909,-0.00170666,0.00407496,0.00878898,-36.7887,-0.000878906,,0.0303373
0.323047,0.323926,0.169809,0.139472,9.713,0.00478502,-0.0001409,0.00730848,0.00901962,-2.94461,-0.000878906,,0.0303373
0.326611,0.32749,0.16917,0.138833,9.813,0.00489345,-0.000127699,0.00740008,0.00911981,-2.60959,-0.000878906,,0.0303373
0.329785,0.330664,0.170215,0.139878,9.913,0.00494597,-0.000178969,0.007556,0.00930478,-3.61848,-0.000878906,,0.0303373
0.333105,0.333984,0.171376,0.141039,10.013,0.005074,-0.000152562,0.0076307,0.0093857,-3.00674,-0.000878906,,0.0303373
0.335938,0.336816,0.170447,0.140109,10.113,0.00513719,-0.000124839,0.00778947,0.00969493,-2.4301,-0.000878906,,0.0303373
0.339209,0.340088,0.172882,0.142545,10.213,0.00519659,-0.000102773,0.00793774,0.0097544,-1.9777,-0.000878906,,0.0303373
0.342285,0.343164,0.17381,0.143473,10.313,0.00524917,-0.000104053,0.00797566,0.00986198,-1.98228,-0.000878906,,0.0303373
0.345752,0.346631,0.174077,0.14374,10.413,0.00530454,-0.000117456,0.00808362,0.00998518,-2.21425,-0.000878906,,0.0303373
0.349072,0.349951,0.176184,0.145847,10.513,0.00532976,-0.000117456,0.00808362,0.00998518,-2.20378,-0.000878906,,0.0303373
0.352637,0.353516,0.175488,0.14515,10.613,0.00538714,-0.000139095,0.00823412,0.0101755,-2.58198,-0.000878906,,0.0303373
0.356055,0.356934,0.17794,0.147603,10.713,0.00547453,-0.000123257,0.00828325,0.0102421,-2.25146,-0.000878906,,0.0303373
0.359863,0.360742,0.179039,0.148702,10.813,0.00558316,-0.000145436,0.00834923,0.0104692,-2.6049,-0.000878906,,0.0303373
0.36333,0.364209,0.178598,0.148261,10.913,0.0056188,-0.000162199,0.00853956,0.0105389,-2.88672,-0.000878906,,0.0303373
0.366699,0.367578,0.180215,0.149878,11.013,0.00570344,-0.000150229,0.00860589,0.0106974,-2.63401,-0.000878906,,0.0303373
0.369336,0.370215,0.182775,0.152438,11.113,0.00573643,-0.000159839,0.00873962,0.0107742,-2.78638,-0.000878906,,0.0303373
0.372412,0.373291,0.181171,0.150834,11.213,0.00582993,-0.000182012,0.00885871,0.0109169,-3.12203,-0.000878906,,0.0303373
0.375635,0.376514,0.18318,0.152843,11.313,0.00586189,-0.000180672,0.00894446,0.0110304,-3.08215,-0.000878906,,0.0303373
0.379199,0.380078,0.185192,0.154855,11.413,0.00594845,-0.00016092,0.00901283,0.0110964,-2.70524,-0.000878906,,0.0303373
0.382227,0.383105,0.186577,0.156239,11.513,0.00600961,-0.000192524,0.00907829,0.0113432,-3.2036,-0.000878906,,0.0303373
0.385547,0.386426,0.18504,0.154703,11.613,0.00604957,-0.000194135,0.0092595,0.0114172,-3.20907,-0.000878906,,0.0303373
0.388965,0.389844,0.184552,0.154215,11.713,0.00613194,-0.000181922,0.00931481,0.0115415,-2.96679,-0.000878906,,0.0303373
0.392822,0.393701,0.186584,0.156247,11.813,0.00616865,-0.000187635,0.00942288,0.0115955,-3.04175,-0.000878906,,0.0303373
0.396631,0.39751,0.186656,0.156319,11.913,0.00629888,-0.00018423,0.00950512,0.0117251,-2.92481,-0.000878906,,0.0303373
0.400244,0.401123,0.186249,0.155912,12.013,0.00636043,-0.000181979,0.00964349,0.0118952,-2.86111,-0.000878906,,0.0303373
0.403076,0.403955,0.188579,0.158242,12.113,0.00649477,-0.000193882,0.00973303,0.0119879,-2.9852,-0.000878906,,0.0303373
0.40625,0.407129,0.192155,0.161818,12.213,0.00655252,-0.000187112,0.00980096,0.0121655,-2.85557,-0.000878906,,0.0303373
0.409326,0.410205,0.18977,0.159433,12.313,0.00665428,-0.000179485,0.0100121,0.0123228,-2.69729,-0.000878906,,0.0303373
0.412695,0.413574,0.191681,0.161344,12.413,0.00672465,-0.000185583,0.0100702,0.0124588,-2.75974,-0.000878906,,0.0303373
0.415723,0.416602,0.192595,0.162258,12.513,0.00675626,-0.000182698,0.0101804,0.0125319,-2.70413,-0.000878906,,0.0303373
0.419092,0.419971,0.19242,0.162083,12.613,0.00683771,-0.000182698,0.0101804,0.0125319,-2.67192,-0.000878906,,0.0303373
0.422266,0.423145,0.195848,0.165511,12.713,0.00686766,-0.00018232,0.0103969,0.0127972,-2.65476,-0.000878906,,0.0303373
0.425928,0.426807,0.193572,0.163235,12.813,0.00697391,-0.000169065,0.0104744,0.0128859,-2.42425,-0.000878906,,0.0303373
0.42959,0.430469,0.199219,0.168881,12.913,0.00701948,-0.000155609,0.0105667,0.0130188,-2.21682,-0.000878906,,0.0303373
0.433252,0.434131,0.196243,0.165906,13.013,0.00708352,-0.00014263,0.0107251,0.0131451,-2.01355,-0.000878906,,0.0303373
0.436328,0.437207,0.195874,0.165537,13.113,0.0071743,-0.000130881,0.0107891,0.0132891,-1.8243,-0.000878906,,0.0303373
0.439844,0.440723,0.198576,0.168239,13.213,0.00721667,-0.000110858,0.010895,0.013359,-1.53614,-0.000878906,,0.0303373
0.443115,0.443994,0.198401,0.168064,13.313,0.00730911,-0.000118864,0.0109453,0.0134067,-1.62624,-0.000878906,,0.0303373
0.446436,0.447314,0.198309,0.167972,13.413,0.00735253,-9.92E-05,0.0110847,0.013599,-1.34868,-0.000878906,,0.0303373
0.449268,0.450146,0.19745,0.167113,13.513,0.00743662,-0.000102734,0.0111367,0.0136645,-1.38146,-0.000878906,,0.0303373
0.452539,0.453418,0.199177,0.16884,13.613,0.00748201,-0.000102751,0.0111897,0.0137927,-1.37331,-0.000878906,,0.0303373
0.455859,0.456738,0.198189,0.167852,13.713,0.00751673,-9.16E-05,0.0112911,0.0138678,-1.2191,-0.000878906,,0.0303373
0.459521,0.4604,0.199759,0.169422,13.813,0.00766516,-0.000113484,0.0114152,0.014096,-1.48052,-0.000878906,,0.0303373
0.462842,0.463721,0.198961,0.168624,13.913,0.00771192,-0.000114551,0.0115437,0.0141658,-1.48538,-0.000878906,,0.0303373
0.466357,0.467236,0.201752,0.171415,14.013,0.00783386,-0.000112617,0.0116244,0.01426,-1.43757,-0.000878906,,0.0303373
0.469385,0.470264,0.2025,0.172163,14.113,0.00794439,-0.000115222,0.0118475,0.0144919,-1.45036,-0.000878906,,0.0303373
0.472852,0.47373,0.200778,0.17044,14.213,0.00800869,-0.000128674,0.0118962,0.0145479,-1.60668,-0.000878906,,0.0303373
0.476221,0.4771,0.203716,0.173379,14.313,0.00805061,-0.00011815,0.0119509,0.0146641,-1.46759,-0.000878906,,0.0303373
0.479834,0.480713,0.203119,0.172782,14.413,0.00809702,-0.000129519,0.0120649,0.014737,-1.59959,-0.000878906,,0.0303373
0.482959,0.483838,0.202235,0.171898,14.513,0.00825567,-0.000138576,0.0121428,0.0149526,-1.67856,-0.000878906,,0.0303373
0.486279,0.487158,0.205087,0.17475,14.613,0.00825567,-0.000136215,0.0122764,0.0149526,-1.64996,-0.000878906,,0.0303373
0.489355,0.490234,0.204803,0.174466,14.713,0.00840574,-0.000140606,0.0123922,0.0150944,-1.67274,-0.000878906,,0.0303373
0.492822,0.493701,0.203191,0.172854,14.813,0.00850384,-0.000131489,0.0125741,0.0153196,-1.54623,-0.000878906,,0.0303373
0.49624,0.497119,0.207599,0.177262,14.913,0.00861459,-0.000124791,0.0126343,0.0153972,-1.4486,-0.000878906,,0.0303373
0.499707,0.500586,0.20365,0.173312,15.013,0.00867664,-0.000125255,0.0126959,0.0155632,-1.44359,-0.000878906,,0.0303373
0.502588,0.503467,0.206444,0.176107,15.113,0.00873821,-0.000129128,0.0128359,0.0156417,-1.47774,-0.000878906,,0.0303373
0.505811,0.506689,0.20561,0.175273,15.213,0.0089356,-0.000114949,0.0129189,0.0158784,-1.28642,-0.000878906,,0.0303373
0.509131,0.51001,0.208117,0.17778,15.313,0.00900158,-0.000139614,0.0131275,0.0159386,-1.55099,-0.000878906,,0.0303373
0.512793,0.513672,0.205427,0.175089,15.413,0.0091439,-0.000118275,0.0132303,0.0160106,-1.29349,-0.000878906,,0.0303373
0.516113,0.516992,0.206186,0.175849,15.513,0.00921523,-0.000107575,0.0133772,0.0161556,-1.16736,-0.000878906,,0.0303373
0.519775,0.520654,0.205114,0.174777,15.613,0.00944455,-9.94E-05,0.0135497,0.0163092,-1.05251,-0.000878906,,0.0303373
0.5229,0.523779,0.202696,0.172358,15.713,0.00952675,-9.24E-05,0.0136179,0.016472,-0.970369,-0.000878906,,0.0303373
0.526416,0.527295,0.199553,0.169216,15.813,0.00960166,-8.70E-05,0.0137764,0.0165546,-0.906008,-0.000878906,,0.0303373
0.529639,0.530518,0.203545,0.173208,15.913,0.00983888,-7.59E-05,0.0138595,0.0167933,-0.771229,-0.000878906,,0.0303373
0.532959,0.533838,0.202802,0.172465,16.013,0.00992246,-6.05E-05,0.0140783,0.0168738,-0.609523,-0.000878906,,0.0303373
0.53584,0.536719,0.205087,0.17475,16.113,0.0100968,-6.72E-05,0.0141513,0.0169618,-0.6654,-0.000878906,,0.0303373
0.538965,0.539844,0.201593,0.171256,16.213,0.0101945,-4.07E-05,0.0143017,0.0170992,-0.399536,-0.000878906,,0.0303373
0.542041,0.54292,0.199538,0.169201,16.313,0.0105188,-4.87E-05,0.0143835,0.0171586,-0.463433,-0.000878906,,0.0303373
0.545508,0.546387,0.196219,0.165882,16.413,0.0106433,-2.50E-05,0.0145557,0.0173673,-0.235219,-0.000878906,,0.0303373
0.548926,0.549805,0.193645,0.163308,16.513,0.0107691,-3.44E-05,0.0147481,0.0174305,-0.319527,-0.000878906,,0.0303373
0.55249,0.553369,0.184148,0.153811,16.613,0.0110485,-1.87E-05,0.0148481,0.0175569,-0.168913,-0.000878906,,0.0303373
0.555859,0.556738,0.178229,0.147891,16.713,0.0110485,-1.13E-05,0.0149582,0.0175569,-0.102074,-0.000878906,,0.0303373
0.559668,0.560547,0.17018,0.139843,16.813,0.0119873,8.81E-06,0.0153447,0.0177393,0.07347943,-0.000878906,,0.0303373
0.563232,0.564111,0.166143,0.135805,16.913,0.0122702,1.52E-05,0.0156123,0.0178215,0.124033,-0.000878906,,0.0303373
0.56665,0.567529,0.156049,0.125712,17.013,0.0131401,2.13E-05,0.0157327,0.0178675,0.161901,-0.000878906,,0.0303373
0.569287,0.570166,0.148067,0.11773,17.113,0.0134136,0.000123577,0.0160762,0.0180592,0.921281,-0.000878906,,0.0303373
0.572363,0.5732422,0.143033,0.112696,17.213,0.0136878,0.00012507,0.0163104,0.0180215,0.913733,-0.000878906,,0.0303373
0.575586,0.576465,0.138227,0.107889,17.313,0.0142796,0.0001003,0.0164503,0.0180721,0.702401,-0.000878906,,0.0303373
0.579102,0.57998,0.135882,0.105545,17.413,0.0147683,3.05E-05,0.0168758,0.0182271,0.206602,-0.000878906,,0.0303373
0.582227,0.583105,0.134644,0.104307,17.513,0.015138,3.41E-05,0.0169873,0.0183086,0.225545,-0.000878906,,0.0303373
0.585547,0.586426,0.131559,0.101222,17.613,0.0152926,8.24E-05,0.0171789,0.0184419,0.538936,-0.000878906,,0.0303373
0.588965,0.589844,0.128746,0.0984083,17.713,0.0156753,7.63E-05,0.017262,0.0184901,0.486521,-0.000878906,,0.0303373
0.592822,0.593701,0.128011,0.0976732,17.813,0.015795,0.000101714,0.0174271,0.018678,0.643963,-0.000878906,,0.0303373
0.596582,0.597461,0.126772,0.0964348,17.913,0.0159203,9.92E-05,0.0175878,0.0187482,0.623206,-0.000878906,,0.0303373
0.600195,0.601074,0.126903,0.0965656,18.013,0.0161683,0.000133636,0.0176724,0.0188816,0.826531,-0.000878906,,0.0303373
0.603027,0.603906,0.12853,0.0981932,18.113,0.0162845,0.00013106,0.0178506,0.0189466,0.804814,-0.000878906,,0.0303373
0.606201,0.60708,0.124994,0.09465625,18.213,0.0166119,0.000121251,0.0180257,0.0190431,0.729904,-0.000878906,,0.0303373
0.609277,0.610156,0.122159,0.09182148,18.313,0.0167041,0.000106092,0.0181831,0.0191476,0.635125,-0.000878906,,0.0303373
0.612646,0.613525,0.123697,0.0933593,18.413,0.0168953,0.000127484,0.018248,0.0191852,0.754553,-0.000878906,,0.0303373
0.615674,0.616553,0.124338,0.0940007,18.513,0.017086,0.000133168,0.0183396,0.0194077,0.779398,-0.000878906,,0.0303373
0.618994,0.619873,0.120039,0.0897014,18.613,0.0171733,0.000140832,0.0185792,0.0194771,0.820064,-0.000878906,,0.0303373
0.622168,0.623047,0.121818,0.0914809,18.713,0.0172546,0.00013385,0.0186501,0.0195474,0.775735,-0.000878906,,0.0303373
0.62583,0.626709,0.122369,0.09203141,18.813,0.0174605,0.00014252,0.0187978,0.0196814,0.816242,-0.000878906,,0.0303373
0.62959,0.630469,0.12133,0.0909924,18.913,0.0177646,0.000153842,0.0189379,0.0198292,0.866003,-0.000878906,,0.0303373
0.633252,0.634131,0.116896,0.0865583,19.013,0.0178867,0.0001902,0.0191125,0.0200006,1.06336,-0.000878906,,0.0303373
0.6363281,0.637207,0.114452,0.0841147,19.113,0.0181477,0.00019018,0.0192097,0.0200844,1.04796,-0.000878906,,0.0303373
0.639844,0.640723,0.116469,0.086132,19.213,0.0184218,0.000221791,0.0192982,0.0203012,1.20396,-0.000878906,,0.0303373
0.643164,0.644043,0.115036,0.0846992,19.313,0.0185559,0.000223738,0.019591,0.0203574,1.20575,-0.000878906,,0.0303373
0.646484,0.647363,0.111808,0.0814703,19.413,0.0188042,0.000256386,0.0196966,0.020513,1.36345,-0.000878906,,0.0303373
0.649316,0.650195,0.111701,0.0813641,19.513,0.0189139,0.00027543,0.0199109,0.0205782,1.45623,-0.000878906,,0.0303373
0.652588,0.653467,0.110567,0.0802297,19.613,0.0191888,0.000253422,0.0199926,0.0206444,1.32068,-0.000878906,,0.0303373
0.655811,0.656689,0.106954,0.0766167,19.713,0.0192779,0.000274741,0.0202201,0.0208076,1.42516,-0.000878906,,0.0303373
0.659521,0.6604,0.109322,0.0789844,19.813,0.0194527,0.000270724,0.0202849,0.0208681,1.3917,-0.000878906,,0.0303373
0.662842,0.663721,0.108246,0.07790831,19.913,0.0195417,0.000265712,0.020349,0.0209838,1.35972,-0.000878906,,0.0303373
0.666309,0.667188,0.108978,0.078641,20.013,0.0197224,0.000278797,0.0205439,0.0211166,1.41361,-0.000878906,,0.0303373
0.669385,0.670264,0.110605,0.0802682,20.113,0.0198851,0.000287219,0.0206061,0.0212507,1.44439,-0.000878906,,0.0303373
0.672852,0.67373,0.106483,0.0761456,20.213,0.0199699,0.000291358,0.0207383,0.0213218,1.45899,-0.000878906,,0.0303373
0.676221,0.6771,0.110165,0.0798276,20.313,0.0201836,0.000288671,0.0208049,0.0213902,1.43023,-0.000878906,,0.0303373
0.679834,0.680713,0.106726,0.0763889,20.413,0.0202615,0.000309327,0.0210298,0.0216027,1.52667,-0.000878906,,0.0303373
0.68291,0.683789,0.108502,0.0781652,20.513,0.0204248,0.000319433,0.021116,0.0216792,1.56395,-0.000878906,,0.0303373
0.686279,0.687158,0.10765,0.0773129,20.613,0.0205163,0.000330058,0.0212114,0.0218431,1.60876,-0.000878906,,0.0303373
0.689307,0.690186,0.1055072,0.0751699,20.713,0.0205987,0.000326733,0.0213792,0.0218986,1.58618,-0.000878906,,0.0303373
0.692773,0.693652,0.106777,0.0764397,20.813,0.0207668,0.000336139,0.0214527,0.0220312,1.61864,-0.000878906,,0.0303373
0.696191,0.69707,0.10821,0.0778731,20.913,0.0209381,0.000354878,0.0216945,0.0221595,1.69489,-0.000878906,,0.0303373
0.699609,0.700488,0.104797,0.0744595,21.013,0.0211093,0.000373976,0.02176,0.0222305,1.77162,-0.000878906,,0.0303373
0.702441,0.70332,0.103801,0.0734638,21.113,0.0212865,0.000358843,0.0218358,0.0224227,1.68578,-0.000878906,,0.0303373
0.705664,0.706543,0.105069,0.0747316,21.213,0.0214424,0.000374536,0.0220376,0.0224904,1.74671,-0.000878906,,0.0303373
0.708984,0.709863,0.107113,0.07677578,21.313,0.0215211,0.000342649,0.0220898,0.0225989,1.59215,-0.000878906,,0.0303373
0.712549,0.713428,0.104724,0.07438636,21.413,0.021589,0.000307547,0.0222156,0.0226685,1.42455,-0.000878906,,0.0303373
0.715869,0.716748,0.104649,0.074312,21.513,0.0218093,0.000293444,0.022351,0.0228976,1.3455,-0.000878906,,0.0303373
0.7194824,0.720361,0.106056,0.07571833,21.613,0.0218842,0.000315193,0.0225036,0.0229795,1.44028,-0.000878906,,0.0303373