File: Raw_Data./Tensile Nozzle 0.4 mm/45 Degrees/LH0.2_45D_N0.4/Test 3.csv
Crosshead ,Load ,Time ,Strain 1 ,Strain 2
0.004003906,-0.005354331,0.117,-1.67E-05,6.08E-05
0.0101074,-0.000723257,0.217,-2.00E-05,-1.11E-05
0.0171875,0.006571075,0.317,2.60E-05,5.28E-06
0.025293,0.0120732,0.417,0.000127372,1.52E-05
0.0340332,0.0227752,0.517,0.000227479,-2.27E-05
0.0430176,0.0298643,0.617,0.000227479,-1.61E-05
0.05126953,0.0336568,0.717,0.000418554,-8.42E-05
0.0598145,0.0433451,0.817,0.000418554,-6.65E-05
0.0688965,0.0504699,0.917,0.000519033,-0.000108851
0.078125,0.0592074,1.017,0.000830483,-0.000169002
0.0866699,0.06609745,1.117,0.000893566,-0.000453586
0.09521484,0.0723791,1.217,0.00101978,-0.000484579
0.104102,0.0818064,1.317,0.00101978,-0.000507085
0.113037,0.0887062,1.417,0.000935018,-0.000511978
0.121826,0.09654303,1.517,0.0010751,-0.00057675
0.130127,0.101998,1.617,0.00126139,-0.000539816
0.138867,0.109516,1.717,0.00132936,-0.000636878
0.147559,0.118054,1.817,0.00139597,-0.000622238
0.156494,0.124514,1.917,0.00160555,-0.000611431
0.16499,0.131082,2.017,0.00168643,-0.000639271
0.173828,0.137712,2.117,0.00188229,-0.000633337
0.182178,0.142074,2.217,0.00192979,-0.000640875
0.19082,0.150152,2.317,0.00192979,-0.000646491
0.199512,0.15855,2.417,0.00219375,-0.00065189
0.208154,0.163208,2.517,0.00219375,-0.0006696
0.21626,0.16844,2.617,0.00232648,-0.000798903
0.224561,0.177232,2.717,0.00236685,-0.000729156
0.233154,0.183024,2.817,0.00252216,-0.00073476
0.24209,0.190867,2.917,0.00263943,-0.000993864
0.25,0.196461,3.017,0.002708,-0.00104885
0.258203,0.199395,3.117,0.00287886,-0.00107992
0.266553,0.207477,3.217,0.00292531,-0.00107711
0.275537,0.212913,3.317,0.00314621,-0.00114913
0.283594,0.21925,3.417,0.0032128,-0.00113524
0.29165,0.222075,3.517,0.00333175,-0.00115804
0.299902,0.231657,3.617,0.00333175,-0.00115804
0.30874,0.235868,3.717,0.00342349,-0.00114691
0.317188,0.243242,3.817,0.00350978,-0.00121507
0.325391,0.245832,3.917,0.00355056,-0.00121507
0.333691,0.252912,4.017,0.00371635,-0.0012129
0.342285,0.260801,4.117,0.00371635,-0.00121709
0.350635,0.267931,4.217,0.00382431,-0.00121783
0.35918,0.272199,4.317,0.00388484,-0.00126056
0.367432,0.279,4.417,0.00395637,-0.00127361
0.375977,0.285285,4.517,0.00421886,-0.0013045
0.384033,0.286594,4.617,0.00421886,-0.00131971
0.392529,0.293334,4.717,0.00434944,-0.00139044
0.401172,0.298054,4.817,0.00452132,-0.0014026
0.40957,0.304142,4.917,0.00464637,-0.00158042
0.41748,0.307504,5.017,0.0046931,-0.0016035
0.425684,0.314173,5.117,0.00475638,-0.0015815
0.434277,0.318954,5.217,0.00480499,-0.00167538
0.44292,0.324754,5.317,0.00484512,-0.00166268
0.450781,0.328212,5.417,0.00508142,-0.001721
0.458887,0.33625,5.517,0.00515171,-0.00175861
0.467432,0.339432,5.617,0.00524291,-0.00180722
0.476416,0.344185,5.717,0.00528997,-0.00176131
0.48457,0.348525,5.817,0.00534266,-0.00178816
0.492676,0.353272,5.917,0.00554846,-0.00178092
0.500977,0.357247,6.017,0.00560233,-0.00178877
0.509814,0.363884,6.117,0.00574498,-0.001837
0.518164,0.36959,6.217,0.00581765,-0.00186334
0.526221,0.374307,6.317,0.0060768,-0.00188569
0.534521,0.377781,6.417,0.00586121,-0.00190009
0.543018,0.382311,6.517,0.00586121,-0.00190009
0.551367,0.387638,6.617,0.00613218,-0.00198676
0.559814,0.391044,6.717,0.00619175,-0.00203959
0.568018,0.392049,6.817,0.0062886,-0.00205556
0.576367,0.399762,6.917,0.00651533,-0.0021006
0.584326,0.403973,7.017,0.00664572,-0.00222156
0.592725,0.406997,7.117,0.00669265,-0.002204
0.60127,0.413491,7.217,0.00672336,-0.00220719
0.609521,0.419373,7.317,0.00683086,-0.00223636
0.617432,0.424271,7.417,0.00694734,-0.00229042
0.625732,0.426334,7.517,0.00706009,-0.00230219
0.634473,0.430987,7.617,0.00710725,-0.00229888
0.643164,0.435845,7.717,0.00730808,-0.00238774
0.651074,0.439875,7.817,0.00735337,-0.00236818
0.65918,0.441083,7.917,0.00741529,-0.00237104
0.667725,0.443366,8.017,0.0075291,-0.00246177
0.676562,0.451342,8.117,0.00764042,-0.00243692
0.684619,0.453771,8.217,0.00773413,-0.00249731
0.692773,0.460734,8.317,0.00777622,-0.00252163
0.701074,0.459063,8.417,0.00808513,-0.00260058
0.709863,0.465146,8.517,0.00808513,-0.00260058
0.718262,0.47372,8.617,0.00818688,-0.00258705
0.726367,0.475972,8.717,0.00829074,-0.00262247
0.734619,0.479717,8.817,0.00836251,-0.00266674
0.743018,0.481848,8.917,0.00828845,-0.00270129
0.751221,0.485716,9.017,0.0083686,-0.00272312
0.759619,0.490252,9.117,0.00852663,-0.00279238
0.767773,0.493722,9.217,0.00869045,-0.0027897
0.776172,0.497242,9.317,0.00872137,-0.00285855
0.784228,0.50048,9.417,0.00888219,-0.00288375
0.792773,0.505241,9.517,0.00894535,-0.00287847
0.801416,0.506742,9.617,0.00906565,-0.00295041
0.809814,0.51058,9.717,0.00911746,-0.00293665
0.817725,0.51437,9.817,0.00939885,-0.00298305
0.826025,0.520791,9.917,0.00946191,-0.00301502
0.834717,0.520044,10.017,0.00949913,-0.00304632
0.843262,0.525136,10.117,0.00954705,-0.00306348
0.851123,0.5292995,10.217,0.00960657,-0.00313866
0.859228,0.531659,10.317,0.00975687,-0.00315567
0.867871,0.536691,10.417,0.00982801,-0.00322002
0.876807,0.540284,10.517,0.00989923,-0.00318467
0.884961,0.545964,10.617,0.0100326,-0.00380467
0.892969,0.547237,10.717,0.0101779,-0.00358982
0.901221,0.548839,10.817,0.0103138,-0.00366542
0.909863,0.553714,10.917,0.0103672,-0.00366661
0.918164,0.557094,11.017,0.0105471,-0.00342272
0.926172,0.558603,11.117,0.010607,-0.00347043
0.934375,0.561509,11.217,0.0104226,-0.00344604
0.942822,0.566121,11.317,0.0106663,-0.00349087
0.951123,0.568474,11.417,0.0107909,-0.0034987
0.95957,0.567558,11.517,0.0108873,-0.00353664
0.967871,0.57321,11.617,0.0109199,-0.00352637
0.976318,0.577749,11.717,0.0110748,-0.00352335
0.984326,0.581321,11.817,0.0111676,-0.00358826
0.992725,0.587338,11.917,0.0113451,-0.00366527
1.00127,0.590916,12.017,0.0113704,-0.00364686
1.00962,0.592123,12.117,0.0114458,-0.00368797
1.01758,0.596304,12.217,0.0116555,-0.00432671
1.02598,0.596487,12.317,0.0116924,-0.00435369
1.03472,0.599294,12.417,0.0118272,-0.00416646
1.04341,0.60311,12.517,0.0119143,-0.00418287
1.05132,0.60916,12.617,0.0119786,-0.00422551
1.05947,0.608621,12.717,0.0120257,-0.00427643
1.06802,0.611802,12.817,0.0120563,-0.00425961
1.07676,0.612997,12.917,0.0123819,-0.00425151
1.08467,0.616848,13.017,0.0124005,-0.00432109
1.09263,0.621714,13.117,0.0124917,-0.00435966
1.10083,0.624928,13.217,0.0125489,-0.00437861
1.10962,0.625321,13.317,0.0127231,-0.00445799
1.11802,0.629004,13.417,0.0128226,-0.00451258
1.12612,0.633291,13.517,0.0128762,-0.00454073
1.13433,0.635697,13.617,0.0131429,-0.00413151
1.14282,0.636959,13.717,0.0128979,-0.00416429
1.15112,0.640565,13.817,0.0130473,-0.0047599
1.15952,0.642877,13.917,0.0131393,-0.00480881
1.16763,0.645026,14.017,0.0133137,-0.00485767
1.17607,0.649912,14.117,0.0133442,-0.00491939
1.18408,0.651081,14.217,0.0133875,-0.00492199
1.19268,0.654896,14.317,0.0137362,-0.00472821
1.20137,0.658673,14.417,0.0137973,-0.00471324
1.20981,0.66032,14.517,0.0139038,-0.00472517
1.21777,0.664873,14.617,0.013934,-0.00473646
1.22603,0.664709,14.717,0.0141038,-0.00477646
1.23467,0.668233,14.817,0.0141577,-0.00475868
1.24321,0.670969,14.917,0.0142198,-0.00480588
1.25103,0.672738,15.017,0.0143134,-0.00482315
1.25908,0.674719,15.117,0.0144469,-0.00487921
1.26763,0.678177,15.217,0.0145394,-0.0049309
1.27651,0.678812,15.317,0.0146268,-0.00501339
1.28457,0.682707,15.417,0.0147697,-0.00506363
1.29263,0.683697,15.517,0.0148306,-0.00516709
1.30093,0.686097,15.617,0.0148686,-0.00517552
1.30972,0.690604,15.717,0.0149522,-0.00536838
1.31812,0.693386,15.817,0.0152986,-0.00551765
1.32612,0.694954,15.917,0.0153885,-0.00549737
1.33447,0.697061,16.017,0.0154419,-0.00550108
1.34297,0.699456,16.117,0.0153209,-0.00538333
1.35137,0.709228,16.217,0.0153732,-0.00536632
1.35986,0.704575,16.317,0.0154527,-0.00537736
1.36821,0.706457,16.417,0.0155967,-0.00540254
1.37661,0.709185,16.517,0.0156964,-0.00543379
1.38467,0.708745,16.617,0.0158654,-0.0053586
1.39316,0.710449,16.717,0.0160029,-0.00541297
1.40166,0.71432,16.817,0.0161312,-0.00544714
1.40986,0.71859,16.917,0.0162225,-0.00545332
1.41763,0.717675,17.017,0.0162755,-0.0054199
1.42583,0.721153,17.117,0.0166362,-0.00551865
1.43447,0.720704,17.217,0.0166839,-0.00554527
1.44307,0.722609,17.317,0.016844,-0.00556531
1.45083,0.724147,17.417,0.0169195,-0.00569026
1.45889,0.725296,17.517,0.0168618,-0.00602979
1.46729,0.730382,17.617,0.0168996,-0.00605859
1.47607,0.730547,17.717,0.0170154,-0.00607221
1.48408,0.739316,17.817,0.0171595,-0.00614631
1.49209,0.734351,17.917,0.0171997,-0.00614534
1.50029,0.736083,18.017,0.0174017,-0.00600929
1.50903,0.738184,18.117,0.0174803,-0.00599046
1.51748,0.739323,18.217,0.0175933,-0.00600459
1.52563,0.742586,18.317,0.0176747,-0.00603357
1.53394,0.746976,18.417,0.017792,-0.0060583
1.54243,0.745992,18.517,0.0181895,-0.00605063
1.55083,0.746519,18.617,0.0179273,-0.00611832
1.55928,0.746903,18.717,0.0181528,-0.0060736
1.56758,0.750669,18.817,0.0182552,-0.00614593
1.57607,0.748176,18.917,0.018406,-0.00618557
1.58408,0.753861,19.017,0.0184772,-0.00621179
1.59258,0.752547,19.117,0.0185414,-0.00625671
1.60122,0.755215,19.217,0.0187478,-0.00634141
1.60957,0.758726,19.317,0.0186314,-0.00639844
1.61753,0.7578573,19.417,0.0187826,-0.00684402
1.62578,0.75983,19.517,0.018894,-0.00680806
1.63442,0.762946,19.617,0.018989,-0.00686571
1.64302,0.762713,19.717,0.0190348,-0.00685389
1.65083,0.765125,19.817,0.0193476,-0.00662299
1.65898,0.766787,19.917,0.0194752,-0.00669907
1.66748,0.76713,20.017,0.0195091,-0.00668248
1.67646,0.771392,20.117,0.0196462,-0.00669865
1.68457,0.771098,20.217,0.0197951,-0.00673561
1.69263,0.772554,20.317,0.0199743,-0.00667927
1.70093,0.771391,20.417,0.0200441,-0.00675502
1.70972,0.774637,20.517,0.0201145,-0.00670823
1.71812,0.776022,20.617,0.0203127,-0.00679269
1.72617,0.778524,20.717,0.0203739,-0.00682189
1.73447,0.778326,20.817,0.0205099,-0.0068899
1.74292,0.778146,20.917,0.0205515,-0.00687777
1.75122,0.782564,21.017,0.0205773,-0.0069745
1.75967,0.78184,21.117,0.0206157,-0.00741343
1.76787,0.785264,21.217,0.020687,-0.0074824
1.77627,0.784819,21.317,0.0208835,-0.00754963
1.78428,0.780296,21.417,0.0209551,-0.00752811
1.79268,0.782904,21.517,0.0211051,-0.00743563
1.80112,0.785743,21.617,0.0211632,-0.00740783
1.80942,0.786292,21.717,0.0213993,-0.00741171
1.81733,0.786115,21.817,0.0214709,-0.00739641
1.82563,0.78731,21.917,0.0215425,-0.00738489
1.83433,0.788319,22.017,0.0216792,-0.007392
1.84307,0.792263,22.117,0.0217682,-0.00743118
1.85093,0.791657,22.217,0.0218192,-0.0074084
1.85908,0.791072,22.317,0.0218623,-0.00743516
1.86763,0.791317,22.417,0.022207,-0.00751041
1.87651,0.791793,22.517,0.022245,-0.00753966
1.88452,0.792753,22.617,0.0223049,-0.00754861
1.89263,0.793811,22.717,0.0224169,-0.00761237
1.90088,0.795968,22.817,0.0224819,-0.0076605
1.90972,0.797054,22.917,0.0226814,-0.00812971
1.91816,0.796863,23.017,0.022774,-0.00819654
1.92627,0.797676,23.117,0.023008,-0.00822817
1.93457,0.797446,23.217,0.0226314,-0.00824429
1.94292,0.798258,23.317,0.0227921,-0.00811302
1.95127,0.800682,23.417,0.022956,-0.00806316
1.95967,0.798038,23.517,0.0230234,-0.00809131
1.96792,0.801227,23.617,0.0232136,-0.00804332
1.97632,0.801015,23.717,0.0232846,-0.00807813
1.98438,0.802029,23.817,0.0235747,-0.00810883
1.99292,0.803729,23.917,0.0236808,-0.00809773
2.00156,0.80473,24.017,0.0237128,-0.00815861
2.00991,0.803799,24.117,0.0238307,-0.00816736
2.01782,0.802864,24.217,0.0238945,-0.00815721
2.02603,0.805451,24.317,0.0240922,-0.00828799
2.03462,0.806095,24.417,0.0241577,-0.00829797
2.04326,0.8083,24.517,0.0243036,-0.00833535
2.05112,0.807041,24.617,0.0244283,-0.00880752
2.05928,0.807103,24.717,0.0245062,-0.00886285
2.06787,0.804621,24.817,0.0245666,-0.00890019
2.07676,0.809254,24.917,0.02469,-0.00892321
2.08481,0.809071,25.017,0.0248549,-0.00872825
2.09282,0.808161,25.117,0.0248914,-0.00872079
2.10107,0.808552,25.217,0.0252166,-0.00874339
2.10967,0.808321,25.317,0.025265,-0.0087118
2.11792,0.810399,25.417,0.0249034,-0.00876014
2.12583,0.810343,25.517,0.0250376,-0.00877338
2.13403,0.806726,25.617,0.0251261,-0.00876153
2.14248,0.809759,25.717,0.025283,-0.0088323
2.15083,0.811136,25.817,0.0253556,-0.00888562
2.15928,0.811633,25.917,0.0255326,-0.00889555
2.16753,0.812383,26.017,0.0257716,-0.00892047
2.17598,0.811042,26.117,0.025872,-0.00899662
2.18398,0.809871,26.217,0.0260179,-0.00904987
2.19233,0.812485,26.317,0.0261085,-0.00943733
2.20083,0.811266,26.417,0.0261952,-0.00948011
2.20918,0.812885,26.517,0.0264536,-0.009539
2.21714,0.81215,26.617,0.0265394,-0.00954636
2.22549,0.812725,26.717,0.0266126,-0.00939001
2.23428,0.812905,26.817,0.026655,-0.00937532
2.24307,0.814271,26.917,0.0268432,-0.00939261
2.25103,0.814209,27.017,0.026904,-0.00937877
2.25913,0.811415,27.117,0.0270629,-0.00933554
2.26758,0.812748,27.217,0.0272561,-0.00944589
2.27642,0.813607,27.317,0.0269794,-0.00943827
2.28438,0.811321,27.417,0.0270549,-0.00947231
2.29238,0.813696,27.517,0.0271106,-0.00949173
2.30059,0.812735,27.617,0.0273066,-0.00967265
2.30942,0.814725,27.717,0.0273306,-0.00959686
2.31787,0.815477,27.817,0.0276172,-0.00972474
2.32607,0.813522,27.917,0.0276495,-0.00970215
2.33447,0.8119,28.017,0.0278116,-0.010087
2.34302,0.816034,28.117,0.0278389,-0.0101025
2.35137,0.813208,28.217,0.0279042,-0.0101603
2.35977,0.81227,28.317,0.0283231,-0.00993812
2.36797,0.815711,28.417,0.0284435,-0.00993441
2.37632,0.812213,28.517,0.0285876,-0.0100214
2.38433,0.812633,28.617,0.028652,-0.0100134
2.39287,0.814398,28.717,0.0288395,-0.0100485
2.40151,0.816783,28.817,0.0288957,-0.0100487
2.40986,0.813045,28.917,0.0289287,-0.0100217
2.41782,0.811783,29.017,0.0290275,-0.0101513
2.42612,0.811377,29.117,0.0292911,-0.0101845
2.43477,0.813011,29.217,0.0293916,-0.0102334
2.44326,0.813112,29.317,0.0294751,-0.0103114
2.45103,0.813364,29.417,0.0292851,-0.010634
2.45903,0.814185,29.517,0.0293329,-0.0106888
2.46748,0.814902,29.617,0.0294132,-0.0107427
2.47642,0.812623,29.717,0.0295541,-0.0107894
2.48452,0.815578,29.817,0.0297376,-0.0107747
2.49263,0.814322,29.917,0.0298803,-0.0106048
2.50088,0.815903,30.017,0.0299466,-0.0106737
2.50962,0.813759,30.117,0.0300981,-0.0106081
2.51797,0.812893,30.217,0.0303236,-0.0106459
2.52607,0.814099,30.317,0.0303817,-0.0107013
2.53433,0.818001,30.417,0.0306805,-0.0107175
2.54282,0.814188,30.517,0.0307161,-0.0107057
2.55122,0.813544,30.617,0.0308548,-0.0108837
2.55972,0.814078,30.717,0.0309325,-0.0108836
2.56807,0.812854,30.817,0.0310358,-0.0109478
2.57651,0.810419,30.917,0.0311207,-0.0109924
2.58457,0.812009,31.017,0.0312511,-0.0111073
2.59307,0.812623,31.117,0.0314102,-0.0113038
2.60156,0.811997,31.217,0.0314795,-0.0113617
2.60977,0.811386,31.317,0.0317302,-0.011459
2.61768,0.812525,31.417,0.0317662,-0.0114974
2.62588,0.813291,31.517,0.0319131,-0.011493
2.63462,0.814102,31.617,0.0317594,-0.0112969
2.64321,0.811666,31.717,0.0318438,-0.0113316
2.65107,0.808819,31.817,0.0319177,-0.0113395
2.65918,0.810087,31.917,0.0319918,-0.011353
2.66763,0.809588,32.017,0.032191,-0.0114026
2.67646,0.814048,32.117,0.0322452,-0.0114139
2.68442,0.809819,32.217,0.0325587,-0.0115146
2.69248,0.810466,32.317,0.0326305,-0.0115299
2.70078,0.809876,32.417,0.0328205,-0.0116057
2.70962,0.809636,32.517,0.0329426,-0.0116947
2.71802,0.810057,32.617,0.0330107,-0.0119186
2.72617,0.805534,32.717,0.03319,-0.0120355
2.73447,0.805967,32.817,0.0332421,-0.0120879
2.74302,0.802574,32.917,0.0334373,-0.0120931
2.75137,0.806545,33.017,0.0334373,-0.0120931
2.75981,0.809063,33.117,0.0335634,-0.0121402
2.76797,0.806691,33.217,0.033753,-0.0119109
2.77637,0.808033,33.317,0.0338282,-0.0119359
2.78438,0.805698,33.417,0.0339768,-0.0120105
2.79282,0.806393,33.517,0.0341412,-0.0120359
2.80142,0.807659,33.617,0.0342756,-0.0120743
2.80972,0.805934,33.717,0.0343584,-0.0120656
2.81763,0.804181,33.817,0.0341452,-0.0121481
2.82578,0.800456,33.917,0.034384,-0.0122059
2.83442,0.790001,34.017,0.0344247,-0.012537
2.84302,0.769364,34.117,0.0346007,-0.0126323
2.85088,0.749837,34.217,0.0343651,-0.0124088
2.85898,0.728499,34.317,0.0341166,-0.0120483
2.86753,0.719408,34.417,0.0337067,-0.0119798
2.87646,0.707878,34.517,0.0332871,-0.0119268
2.88452,0.697157,34.617,0.0330774,-0.0122566
2.89263,0.687935,34.717,0.0329956,-0.0122787
2.90093,0.676217,34.817,0.032756,-0.0124853
2.90981,0.213594,34.917,0.0328786,-0.011693
2.9104,-0.0284459,34.924,0.0328786,-0.011693