File: Raw_Data./Tensile Nozzle 0.4 mm/45 Degrees/LH0.2_45D_N0.4/Test 5.csv
Crosshead ,Load ,Time ,Strain 1 ,Strain 2
0.004150391,0.003423793,0.116,-5.14E-05,2.59E-06
0.01015625,0.00145287,0.216,-6.32E-05,4.78E-05
0.0172852,0.0102309,0.316,-1.39E-05,1.96E-05
0.0253906,0.0160808,0.416,1.30E-05,-3.23E-05
0.0342773,0.0235275,0.516,7.18E-05,-4.59E-05
0.0430176,0.0319922,0.616,0.000142174,-2.97E-06
0.0513672,0.0360606,0.716,0.000269155,-9.26E-05
0.0599609,0.0440645,0.816,0.000345197,-0.000115393
0.0691406,0.0523914,0.916,0.000395439,-0.00016034
0.0782715,0.0573759,1.016,0.000438083,-0.000152
0.0868652,0.0666868,1.116,0.000511955,-0.000159813
0.095459,0.070508,1.216,0.000605095,-0.000293808
0.104443,0.0780814,1.316,0.000677701,-0.000391956
0.113379,0.0876409,1.416,0.000869751,-0.000364845
0.12207,0.0933429,1.516,0.000927391,-0.000337024
0.130322,0.100129,1.616,0.00106529,-0.000465128
0.13916,0.106523,1.716,0.00111324,-0.000493221
0.1479,0.113171,1.816,0.00122871,-0.000476934
0.156787,0.118232,1.916,0.00134316,-0.00051724
0.165332,0.125743,2.016,0.0013991,-0.000555029
0.174121,0.130695,2.116,0.00150788,-0.000535522
0.182373,0.136866,2.216,0.00162408,-0.000546175
0.191016,0.141116,2.316,0.00166457,-0.000526069
0.199707,0.14984,2.416,0.00169345,-0.000618901
0.208154,0.157444,2.516,0.00173436,-0.000598642
0.216162,0.161308,2.616,0.00184911,-0.000677246
0.224463,0.163397,2.716,0.00189626,-0.000611155
0.233252,0.173445,2.816,0.00197908,-0.000663077
0.242041,0.17905,2.916,0.00204899,-0.000661996
0.25,0.184665,3.016,0.00212621,-0.000803452
0.258154,0.188498,3.116,0.00222631,-0.000928142
0.266748,0.195225,3.216,0.0022507,-0.000969128
0.275586,0.200779,3.316,0.00245415,-0.000966854
0.283643,0.205606,3.416,0.00253147,-0.000963511
0.291797,0.214599,3.516,0.00267001,-0.000973192
0.300098,0.218943,3.616,0.0027319,-0.00099649
0.308936,0.223353,3.716,0.00288958,-0.00104332
0.317383,0.227492,3.816,0.00298508,-0.000995639
0.325537,0.233555,3.916,0.00303946,-0.00101366
0.333936,0.241272,4.016,0.00315644,-0.00104146
0.342432,0.246258,4.116,0.00318946,-0.00109346
0.35083,0.251675,4.216,0.00322718,-0.00108007
0.359277,0.259286,4.316,0.00328509,-0.00107756
0.367529,0.259954,4.416,0.00340461,-0.00118483
0.375879,0.263147,4.516,0.00346981,-0.00117528
0.383984,0.269563,4.616,0.00351668,-0.00117182
0.39248,0.276,4.716,0.00375704,-0.00119813
0.401074,0.283688,4.816,0.00375704,-0.00119813
0.409326,0.284559,4.916,0.00395009,-0.00138115
0.417285,0.289795,5.016,0.00398361,-0.00141432
0.425488,0.296103,5.116,0.00409565,-0.00145191
0.434229,0.297539,5.216,0.00413757,-0.00149814
0.442676,0.303892,5.316,0.00418331,-0.00151093
0.450586,0.308402,5.416,0.00427178,-0.0015474
0.458691,0.313354,5.516,0.0043572,-0.00158583
0.467334,0.318516,5.616,0.00444925,-0.00157489
0.476172,0.32208,5.716,0.00450484,-0.00157387
0.484229,0.327035,5.816,0.00462233,-0.00164311
0.492383,0.328771,5.916,0.004686,-0.00168597
0.500781,0.332813,6.016,0.00472328,-0.00165685
0.509521,0.341474,6.116,0.004866,-0.00168093
0.51792,0.345142,6.216,0.00497117,-0.00167437
0.525977,0.349377,6.316,0.00515322,-0.00171377
0.534326,0.352084,6.416,0.00521765,-0.00175746
0.542725,0.359152,6.516,0.00537205,-0.00174891
0.551123,0.362287,6.616,0.00549874,-0.00181611
0.55957,0.365731,6.716,0.00558207,-0.00180512
0.567822,0.367708,6.816,0.00566752,-0.00181285
0.576025,0.374233,6.916,0.0057238,-0.00182062
0.584131,0.37815,7.016,0.00585318,-0.00197393
0.592627,0.383313,7.116,0.0058967,-0.00200649
0.601123,0.387921,7.216,0.0059825,-0.00200488
0.609277,0.390976,7.316,0.00605448,-0.00204149
0.617236,0.396491,7.416,0.00613507,-0.00206785
0.625586,0.399493,7.516,0.00620921,-0.00213099
0.634424,0.403752,7.616,0.00624173,-0.00211087
0.64292,0.405378,7.716,0.00636416,-0.00216859
0.65083,0.410448,7.816,0.00637835,-0.00217932
0.658936,0.416333,7.916,0.00652046,-0.00219788
0.66748,0.419229,8.016,0.00659404,-0.00216946
0.67627,0.422144,8.116,0.00679556,-0.00226245
0.684277,0.422969,8.216,0.00691969,-0.0021641
0.692383,0.430237,8.316,0.00695379,-0.0022292
0.700781,0.43443,8.416,0.00704709,-0.0022959
0.709521,0.43772,8.516,0.00712676,-0.00232115
0.71792,0.444114,8.616,0.00718922,-0.00233573
0.725977,0.444964,8.716,0.007225,-0.00235075
0.734326,0.447133,8.816,0.00733107,-0.0023955
0.742725,0.452268,8.916,0.00739913,-0.00247265
0.751025,0.455834,9.016,0.00752516,-0.00250605
0.759375,0.461702,9.116,0.00767549,-0.00258362
0.767627,0.461076,9.216,0.00779292,-0.00257057
0.775977,0.466043,9.316,0.00791723,-0.00262529
0.784131,0.470072,9.416,0.00799657,-0.00265843
0.792725,0.473661,9.516,0.0080459,-0.00269124
0.801367,0.476605,9.616,0.00820817,-0.00272287
0.809668,0.479143,9.716,0.00825778,-0.00274267
0.817627,0.484372,9.816,0.00835123,-0.00274409
0.825928,0.484654,9.916,0.0084478,-0.00281738
0.834619,0.490111,10.016,0.00851615,-0.00283182
0.842969,0.494082,10.116,0.00854982,-0.00283421
0.85083,0.496816,10.216,0.0086099,-0.00280363
0.858887,0.498633,10.316,0.00870343,-0.00289526
0.867529,0.501685,10.416,0.0087688,-0.00291632
0.876318,0.509597,10.516,0.00885266,-0.00298578
0.884326,0.509586,10.616,0.00890461,-0.00294354
0.892432,0.513443,10.716,0.00906823,-0.00305596
0.900684,0.516858,10.816,0.00914968,-0.00310569
0.909277,0.51839,10.916,0.0091861,-0.00308241
0.917529,0.525306,11.016,0.00943058,-0.00316364
0.925537,0.525632,11.116,0.00951399,-0.00317976
0.933838,0.527877,11.216,0.00964389,-0.00323359
0.942285,0.529863,11.316,0.00969559,-0.00327849
0.950684,0.535143,11.416,0.00991239,-0.00328481
0.95918,0.536743,11.516,0.00998579,-0.00328315
0.96748,0.541727,11.616,0.0100332,-0.00330274
0.975879,0.54241,11.716,0.0101499,-0.00328996
0.984033,0.546714,11.816,0.0102203,-0.00334544
0.99248,0.553029,11.916,0.010289,-0.00335415
1.00103,0.551519,12.016,0.0103622,-0.00337736
1.00933,0.55416,12.116,0.010485,-0.0034541
1.01733,0.559647,12.216,0.0105522,-0.00349096
1.02583,0.563818,12.316,0.0106202,-0.00347734
1.03467,0.563249,12.416,0.0107067,-0.00351083
1.04321,0.568397,12.516,0.0108331,-0.00357302
1.05127,0.57107,12.616,0.0109725,-0.00355041
1.05947,0.572677,12.716,0.0110386,-0.0035936
1.06802,0.575319,12.816,0.0112021,-0.00370496
1.07666,0.580679,12.916,0.0112445,-0.00370934
1.08462,0.58225,13.016,0.0112445,-0.00370934
1.09272,0.583036,13.116,0.0113973,-0.0037399
1.10103,0.583636,13.216,0.0114683,-0.00378189
1.10967,0.589849,13.316,0.011535,-0.0037986
1.11812,0.591246,13.416,0.0115651,-0.00382735
1.12612,0.594737,13.516,0.0117612,-0.00383499
1.13452,0.596163,13.616,0.0117871,-0.00385048
1.14287,0.599352,13.716,0.0118557,-0.00383648
1.15127,0.60252,13.816,0.0120024,-0.00393527
1.15962,0.605017,13.916,0.0120401,-0.00393223
1.16782,0.609202,14.016,0.0122807,-0.00399497
1.17612,0.609465,14.116,0.012339,-0.00396784
1.18418,0.612688,14.216,0.0124972,-0.00398969
1.19277,0.615765,14.316,0.0126243,-0.0040718
1.20137,0.616821,14.416,0.0126744,-0.00410759
1.209668,0.620073,14.516,0.012797,-0.00408762
1.21758,0.624547,14.616,0.012859,-0.00410914
1.22593,0.625263,14.716,0.0129788,-0.00420274
1.23457,0.628217,14.816,0.0130012,-0.00422429
1.24302,0.629631,14.916,0.0130977,-0.00425913
1.25088,0.632482,15.016,0.0131416,-0.00423554
1.25898,0.633108,15.116,0.0132628,-0.00430825
1.26763,0.635995,15.216,0.013311,-0.00436031
1.27637,0.639525,15.316,0.0134062,-0.00439325
1.28437,0.639957,15.416,0.0135418,-0.00439026
1.29248,0.647371,15.516,0.0136158,-0.00441885
1.30083,0.646209,15.616,0.0137229,-0.00444074
1.30947,0.6481,15.716,0.0137966,-0.00451996
1.31782,0.651141,15.816,0.0139155,-0.00449121
1.32578,0.654889,15.916,0.0140261,-0.00459849
1.33413,0.655661,16.016,0.0141177,-0.00458732
1.34253,0.658182,16.116,0.0142731,-0.00465517
1.35093,0.658892,16.216,0.0143242,-0.00461668
1.35937,0.663608,16.316,0.0144145,-0.00467066
1.36772,0.664031,16.416,0.0144677,-0.00470431
1.37607,0.66393,16.516,0.0145697,-0.00471498
1.38423,0.667796,16.616,0.01471,-0.00476135
1.39277,0.667872,16.716,0.0147518,-0.0047924
1.40137,0.670401,16.816,0.0148845,-0.00479294
1.40957,0.672193,16.916,0.015023,-0.00485232
1.41748,0.675403,17.016,0.0151517,-0.00491564
1.42588,0.676989,17.116,0.0151517,-0.00491564
1.43467,0.680386,17.216,0.0153046,-0.00492609
1.44321,0.681897,17.317,0.0155015,-0.00500014
1.45107,0.683854,17.416,0.0155604,-0.00496213
1.45923,0.686253,17.516,0.015663,-0.00497412
1.46772,0.68581,17.616,0.0157564,-0.00504422
1.47642,0.689091,17.716,0.015832,-0.00509531
1.48437,0.691861,17.816,0.0158453,-0.00512145
1.49248,0.691587,17.916,0.0159079,-0.00507282
1.50078,0.692874,18.016,0.0160137,-0.00515018
1.50947,0.694906,18.116,0.01608,-0.00515617
1.51792,0.697916,18.216,0.0161575,-0.00525103
1.52598,0.701319,18.316,0.0162387,-0.00526715
1.53438,0.701374,18.416,0.0164395,-0.00536655
1.54272,0.70252,18.516,0.0164765,-0.00533689
1.55107,0.705212,18.616,0.0165481,-0.00537441
1.55942,0.706937,18.716,0.0168179,-0.00548963
1.56763,0.708434,18.816,0.0168878,-0.00545954
1.57593,0.710742,18.916,0.0170565,-0.00555008
1.58394,0.713575,19.016,0.0170693,-0.00553043
1.59243,0.711742,19.116,0.0172656,-0.00564194
1.60103,0.714417,19.216,0.0173053,-0.00563681
1.60928,0.715021,19.316,0.0173721,-0.00565077
1.61724,0.717074,19.416,0.0174805,-0.00562054
1.62554,0.719998,19.516,0.0175765,-0.00570391
1.63423,0.716984,19.616,0.0177089,-0.00575446
1.64268,0.720854,19.716,0.0177589,-0.00572243
1.65059,0.718468,19.816,0.0179403,-0.00585018
1.65874,0.724716,19.916,0.0179991,-0.0059146
1.66738,0.725575,20.016,0.01807,-0.00588311
1.67627,0.725604,20.116,0.0181809,-0.00589627
1.68437,0.727528,20.216,0.0183212,-0.00598609
1.69253,0.728943,20.316,0.0184318,-0.00599675
1.70088,0.731459,20.416,0.0185096,-0.0061173
1.70957,0.732454,20.516,0.0186586,-0.00612772
1.71797,0.733909,20.616,0.0186718,-0.00615703
1.72603,0.736123,20.716,0.0187423,-0.00620648
1.73442,0.734746,20.816,0.0188274,-0.00622702
1.74277,0.736871,20.916,0.0189253,-0.00627213
1.75122,0.736597,21.016,0.0190533,-0.00631048
1.75967,0.73974,21.116,0.0191072,-0.00628202
1.76797,0.741366,21.216,0.0192257,-0.00628202
1.77627,0.741467,21.316,0.0193672,-0.00640879
1.78433,0.739613,21.416,0.0194268,-0.00640875
1.79282,0.74428,21.516,0.0195852,-0.0064326
1.80137,0.744608,21.616,0.0196558,-0.00646699
1.80957,0.746868,21.716,0.019909,-0.0065499
1.81748,0.745536,21.816,0.0199782,-0.00660002
1.82588,0.745563,21.916,0.020118,-0.00662128
1.83462,0.7468,22.016,0.0202437,-0.00675168
1.84307,0.749419,22.116,0.0202911,-0.00673524
1.85103,0.749377,22.216,0.0203991,-0.00675862
1.85913,0.751077,22.316,0.0204599,-0.00677007
1.86777,0.749435,22.416,0.020634,-0.00691679
1.87646,0.751969,22.516,0.0206229,-0.0068891
1.88447,0.754688,22.616,0.0207544,-0.00688117
1.89253,0.756247,22.716,0.0208075,-0.0069507
1.90088,0.756625,22.816,0.02091,-0.00696181
1.90962,0.758049,22.916,0.0210455,-0.00699955
1.91807,0.757677,23.016,0.0210641,-0.0070619
1.92607,0.756462,23.116,0.0213361,-0.00710292
1.93433,0.75974,23.216,0.0213361,-0.00710292
1.94258,0.756794,23.316,0.0215357,-0.00715797
1.95088,0.761292,23.416,0.0215686,-0.00720805
1.95923,0.760144,23.516,0.0217094,-0.00728198
1.96743,0.760361,23.616,0.0218307,-0.0073523
1.97573,0.762794,23.716,0.0218802,-0.00735766
1.98379,0.759963,23.816,0.0220415,-0.00749747
1.99233,0.763638,23.916,0.0221334,-0.00748236
2.00098,0.765573,24.016,0.0222107,-0.00754955
2.00933,0.76365,24.116,0.0222838,-0.00757764
2.01729,0.764542,24.216,0.0223656,-0.00760962
2.02559,0.765432,24.316,0.0225994,-0.0076657
2.03433,0.76644,24.416,0.0227157,-0.00766928
2.04277,0.765053,24.516,0.0228447,-0.00772602
2.05068,0.767904,24.616,0.0230123,-0.00774602
2.05879,0.768472,24.716,0.0231382,-0.00778115
2.06743,0.766381,24.816,0.0232293,-0.00778351
2.07632,0.766397,24.916,0.0232608,-0.00789482
2.08442,0.768921,25.016,0.0234381,-0.00792976
2.09258,0.769692,25.116,0.0234698,-0.0079394
2.10088,0.770836,25.216,0.0235313,-0.00795437
2.10952,0.772035,25.316,0.0237118,-0.00811098
2.11782,0.771275,25.416,0.023813,-0.00806493
2.12578,0.771285,25.516,0.0238628,-0.00812682
2.13403,0.77244,25.616,0.0238822,-0.00815604
2.14243,0.772925,25.716,0.0240862,-0.00817649
2.15083,0.776578,25.816,0.0241594,-0.00823537
2.15928,0.772363,25.916,0.0242954,-0.00828484
2.16758,0.772712,26.016,0.024404,-0.00833652
2.17598,0.775148,26.116,0.0245902,-0.00836943
2.18413,0.772585,26.216,0.024696,-0.00841314
2.19268,0.774021,26.316,0.0247577,-0.0085078
2.20122,0.774894,26.416,0.0249753,-0.00849715
2.20942,0.775309,26.516,0.0250535,-0.00852641
2.21738,0.772622,26.616,0.0252021,-0.00867575
2.22578,0.775277,26.716,0.0252406,-0.00866516
2.23467,0.775112,26.816,0.025409,-0.00870233
2.24316,0.773626,26.916,0.0254874,-0.00878498
2.25117,0.775545,27.016,0.0255717,-0.00878578
2.25928,0.775144,27.116,0.0257005,-0.00885706
2.26782,0.77556,27.216,0.0258562,-0.00893594
2.27646,0.779229,27.316,0.0260049,-0.00899845
2.28442,0.775532,27.416,0.026078,-0.00908871
2.29243,0.776401,27.516,0.0263422,-0.00909671
2.30073,0.777142,27.616,0.0264149,-0.00922803
2.30942,0.778543,27.716,0.0264705,-0.00922774
2.31787,0.77537,27.816,0.0265901,-0.00927449
2.32598,0.775076,27.916,0.0267137,-0.00933936
2.33437,0.775614,28.016,0.0268429,-0.00937697
2.34282,0.779052,28.116,0.0268662,-0.00938261
2.35117,0.777297,28.216,0.0270011,-0.00941596
2.35962,0.775958,28.316,0.0270842,-0.00951474
2.36782,0.777408,28.416,0.0271274,-0.00945149
2.37617,0.777949,28.516,0.0272788,-0.00955912
2.38433,0.779139,28.616,0.0273618,-0.00959795
2.39292,0.778978,28.716,0.0276419,-0.00961516
2.40156,0.778247,28.816,0.0277297,-0.00976656
2.40981,0.77714,28.916,0.0279014,-0.0097408
2.41777,0.77951,29.016,0.028038,-0.00979463
2.42612,0.776361,29.116,0.0281285,-0.00987932
2.43477,0.778176,29.216,0.0282614,-0.00997046
2.44307,0.774946,29.316,0.0283285,-0.0100641
2.45088,0.774082,29.416,0.0285219,-0.010148
2.45889,0.776123,29.516,0.0285791,-0.010133
2.46748,0.776312,29.616,0.0287065,-0.0102389
2.47622,0.779912,29.716,0.0288207,-0.0102
2.48423,0.77496,29.816,0.0289241,-0.010276
2.49229,0.776781,29.916,0.0290757,-0.010343
2.50054,0.776675,30.016,0.029173,-0.0103568
2.50923,0.778587,30.116,0.0294111,-0.0104353
2.51758,0.779022,30.216,0.0295061,-0.0103921
2.52563,0.778654,30.316,0.0296847,-0.0105063
2.53398,0.778118,30.416,0.0297673,-0.0105533
2.54238,0.778168,30.516,0.0298503,-0.0105828
2.55083,0.777507,30.616,0.0299672,-0.0106352
2.55938,0.777211,30.716,0.030014,-0.0106852
2.56777,0.77644,30.816,0.03021,-0.0108358
2.57612,0.778964,30.916,0.0302713,-0.010868
2.58433,0.778091,31.016,0.0304135,-0.0109383
2.59282,0.778069,31.116,0.0304576,-0.0110266
2.60137,0.778527,31.216,0.0305132,-0.0110222
2.60952,0.776115,31.316,0.0307231,-0.0111719
2.61748,0.776592,31.416,0.0308765,-0.0111918
2.62583,0.775618,31.516,0.0310351,-0.011205
2.63457,0.778892,31.616,0.03123,-0.0112606
2.64292,0.776033,31.716,0.031399,-0.0112765
2.65088,0.774434,31.816,0.0315078,-0.0113483
2.65898,0.776863,31.916,0.031589,-0.0112981
2.66753,0.775887,32.016,0.0317628,-0.011396
2.67622,0.778421,32.116,0.0318213,-0.0114339
2.68413,0.77543,32.216,0.0319551,-0.0115126
2.69214,0.77396,32.316,0.0321454,-0.0115766
2.70044,0.774604,32.416,0.0322467,-0.0116365
2.70923,0.777217,32.516,0.0322879,-0.01178
2.71768,0.774851,32.616,0.0323946,-0.0118192
2.72583,0.776877,32.716,0.0326462,-0.0118868
2.73418,0.774572,32.816,0.0327549,-0.0119546
2.74258,0.776323,32.916,0.0329081,-0.0120057
2.75093,0.775414,33.016,0.0329843,-0.0120089
2.75933,0.775013,33.116,0.0332137,-0.0120653
2.76753,0.773078,33.216,0.0332678,-0.0120844
2.77583,0.772827,33.316,0.0333285,-0.0121391
2.78384,0.773438,33.416,0.0335504,-0.0122407
2.79229,0.775248,33.516,0.0336097,-0.0122876
2.80083,0.775813,33.616,0.0337268,-0.0123388
2.80908,0.772644,33.716,0.0337922,-0.0123577
2.81699,0.773185,33.816,0.0340233,-0.0124059
2.82524,0.773097,33.916,0.0340937,-0.0124983
2.83389,0.776552,34.016,0.0341695,-0.0125113
2.84238,0.773816,34.116,0.0343514,-0.0125329
2.85024,0.77612,34.216,0.0345347,-0.0127162
2.8584,0.777072,34.316,0.0347562,-0.0127544
2.86704,0.773647,34.416,0.0348276,-0.0128044
2.87603,0.773966,34.516,0.0350434,-0.0128249
2.88418,0.775034,34.616,0.0350966,-0.0129023
2.89243,0.774637,34.716,0.0351716,-0.012915
2.90093,0.774395,34.816,0.0353227,-0.0129987
2.90967,0.770901,34.916,0.0354705,-0.0131126
2.91802,0.770349,35.016,0.0356053,-0.0130799
2.92603,0.769623,35.116,0.0356464,-0.0131546
2.93438,0.77167,35.216,0.0359169,-0.0131471
2.94277,0.770913,35.316,0.0360256,-0.0131802
2.95117,0.772123,35.416,0.0360256,-0.0131802
2.95957,0.769455,35.516,0.0363102,-0.013365
2.96772,0.771184,35.616,0.0363798,-0.0133642
2.97598,0.769232,35.716,0.0365755,-0.0134818
2.98403,0.768107,35.816,0.0366584,-0.0135681
2.99248,0.769012,35.916,0.0368061,-0.0135445
3.00098,0.7677453,36.016,0.0369741,-0.013626
3.00918,0.769519,36.116,0.0370062,-0.013706
3.01704,0.766991,36.216,0.0371724,-0.0136994
3.02544,0.769831,36.316,0.0372687,-0.0137472
3.03423,0.700381,36.416,0.0375309,-0.0138395
3.04282,0.663127,36.516,0.0376296,-0.0138237
3.05083,0.641743,36.616,0.0374551,-0.0138096
3.05903,0.63458,36.716,0.0372676,-0.0125133
3.06768,0.623325,36.816,0.0372273,-0.012752
3.07642,0.620956,36.916,0.0370114,-0.0125502
3.08447,0.610408,37.016,0.0363629,-0.0123895
3.09258,0.606093,37.116,0.0362957,-0.0120792
3.10098,0.59821,37.216,0.0364669,-0.0120697
3.10796,-0.0598161,37.295,0.0368373,-0.0121507