File: Raw_Data./Tensile Nozzle 0.4 mm/45 Degrees/LH0.2_45D_N0.4/Test 2.csv
Crosshead ,Load ,Time ,Strain 1 ,Strain 2
0.003857422,-0.000168058,0.118,-2.67E-05,-9.75E-06
0.009960938,0.007368959,0.218,-6.50E-06,1.58E-06
0.0174316,0.0134386,0.318,2.57E-06,-3.46E-05
0.0255371,0.0190802,0.418,0.000114334,-1.79E-05
0.0341309,0.0284883,0.518,0.000221584,-3.45E-05
0.0431641,0.0345957,0.618,0.00033639,-0.000124469
0.0521973,0.0437122,0.718,0.000386514,-0.000124469
0.060791,0.0536487,0.818,0.000531752,-0.0001474
0.06943359,0.0573368,0.918,0.000578671,-0.00016835
0.0782715,0.0694786,1.018,0.000621692,-0.000247018
0.0875,0.0766427,1.118,0.00071276,-0.000302008
0.0958496,0.0827542,1.218,0.000827706,-0.000361429
0.104346,0.0923009,1.318,0.00094077,-0.000320815
0.112988,0.0994215,1.418,0.00101981,-0.000341767
0.122363,0.105709,1.518,0.00113825,-0.000370421
0.130811,0.114064,1.618,0.00122912,-0.000378091
0.139258,0.121491,1.718,0.00122912,-0.000393391
0.147803,0.12868,1.818,0.00150493,-0.000441937
0.156934,0.136461,1.918,0.0015922,-0.00050203
0.165625,0.143245,2.018,0.00177023,-0.000551618
0.173926,0.14919,2.118,0.00182862,-0.000543342
0.18252,0.156504,2.218,0.00194064,-0.000573286
0.191113,0.166378,2.318,0.00203144,-0.000644834
0.199707,0.170489,2.418,0.00206615,-0.000665054
0.208301,0.178614,2.518,0.00214968,-0.000709855
0.216699,0.185668,2.618,0.0022087,-0.000673392
0.225,0.188872,2.718,0.00230533,-0.000738885
0.233203,0.197379,2.818,0.00234967,-0.000808806
0.241748,0.203047,2.918,0.00246438,-0.000837242
0.250244,0.208643,3.018,0.00248185,-0.000815341
0.258496,0.215366,3.118,0.0025984,-0.000891028
0.266504,0.223073,3.218,0.00270889,-0.000851394
0.274951,0.228559,3.318,0.0027481,-0.000875458
0.283789,0.235937,3.418,0.00302032,-0.000924336
0.292187,0.242898,3.518,0.0030683,-0.00099135
0.300244,0.249305,3.618,0.00318816,-0.000990779
0.308447,0.2577341,3.718,0.00322439,-0.00102208
0.317188,0.261887,3.818,0.00333901,-0.00100463
0.32583,0.268999,3.918,0.00344985,-0.00112931
0.333936,0.275821,4.018,0.00351954,-0.00110124
0.342139,0.279028,4.118,0.00364055,-0.00117307
0.350684,0.283635,4.218,0.00373154,-0.00115479
0.359326,0.291744,4.318,0.00383632,-0.00124689
0.36792,0.297241,4.418,0.00388274,-0.00122545
0.375977,0.30354,4.518,0.00395268,-0.00123332
0.384424,0.309435,4.618,0.0040737,-0.00130209
0.392725,0.314904,4.718,0.00412386,-0.00129526
0.40127,0.321017,4.818,0.00425374,-0.00138124
0.409521,0.324385,4.918,0.00429984,-0.00141045
0.417822,0.33103,5.018,0.00443599,-0.00140735
0.425928,0.336136,5.118,0.00447805,-0.00142391
0.434277,0.341003,5.218,0.00451122,-0.00142391
0.442871,0.345968,5.318,0.00467512,-0.00143307
0.451416,0.35298,5.418,0.0047027,-0.00147563
0.45957,0.357286,5.518,0.0047899,-0.00154248
0.467627,0.362025,5.618,0.0048325,-0.00153982
0.476025,0.36925,5.718,0.00497687,-0.00157722
0.484766,0.371913,5.818,0.00497687,-0.00157722
0.492969,0.378074,5.918,0.00508843,-0.00161368
0.501074,0.381578,6.018,0.00521478,-0.00166284
0.509228,0.386586,6.118,0.00538786,-0.00171074
0.518066,0.394313,6.218,0.00547308,-0.00173621
0.526611,0.395923,6.318,0.00553321,-0.0017333
0.534814,0.403426,6.418,0.00576196,-0.00180294
0.542871,0.408259,6.518,0.00593693,-0.00180414
0.551318,0.412726,6.618,0.00593693,-0.00186033
0.559766,0.417177,6.718,0.00616135,-0.00188444
0.568115,0.42289,6.818,0.00616135,-0.00185736
0.575977,0.430003,6.918,0.00629333,-0.00189796
0.584277,0.432048,7.018,0.00629333,-0.00193589
0.592529,0.437293,7.118,0.00644111,-0.00195437
0.601074,0.442882,7.218,0.00647277,-0.00199953
0.609473,0.445691,7.318,0.006561,-0.00199565
0.617725,0.453578,7.418,0.00656921,-0.00203959
0.62583,0.456474,7.518,0.00664464,-0.00210709
0.634033,0.461956,7.618,0.00674099,-0.00208046
0.64248,0.463497,7.718,0.0068206,-0.00213641
0.650879,0.471821,7.818,0.00706829,-0.00216703
0.659082,0.473411,7.918,0.00706829,-0.00226404
0.667139,0.47835,8.018,0.00710784,-0.00222978
0.675684,0.485018,8.118,0.0072342,-0.00231572
0.684619,0.490153,8.218,0.0072895,-0.00232318
0.69292,0.497326,8.318,0.00743252,-0.0023655
0.701074,0.494643,8.418,0.00749037,-0.00236339
0.70918,0.501457,8.518,0.00759913,-0.00228444
0.717871,0.50708,8.618,0.00768877,-0.00237789
0.726367,0.509033,8.718,0.00776186,-0.00239976
0.734424,0.513842,8.818,0.00792642,-0.00249623
0.74248,0.518017,8.918,0.00792642,-0.00249623
0.750928,0.520819,9.018,0.00814626,-0.00250379
0.759473,0.526537,9.118,0.00821656,-0.0025208
0.768018,0.528859,9.218,0.00835091,-0.00253796
0.776123,0.534507,9.318,0.00840111,-0.0025685
0.78457,0.540513,9.418,0.00854526,-0.00260961
0.79292,0.542886,9.518,0.00871304,-0.00267931
0.801465,0.548368,9.618,0.00871304,-0.00266322
0.809717,0.552241,9.718,0.0088548,-0.0027716
0.817969,0.553299,9.818,0.00891095,-0.00274484
0.826074,0.562535,9.918,0.00897803,-0.00283358
0.834424,0.564457,10.018,0.00908503,-0.00281359
0.843066,0.566744,10.118,0.00910417,-0.00286327
0.851611,0.573014,10.218,0.00914394,-0.00291502
0.859766,0.575688,10.318,0.00920335,-0.00290035
0.867871,0.581356,10.418,0.00933513,-0.00292365
0.87627,0.583239,10.518,0.00951281,-0.00291916
0.88501,0.587946,10.618,0.00956578,-0.00297014
0.893115,0.590294,10.718,0.00964181,-0.00295977
0.901172,0.592941,10.818,0.00969735,-0.00299908
0.909229,0.599658,10.918,0.00988123,-0.00305342
0.917969,0.600885,11.018,0.00996569,-0.00310003
0.926563,0.605616,11.118,0.0100762,-0.00308242
0.934668,0.609962,11.218,0.0101897,-0.00309881
0.942773,0.611588,11.318,0.0103161,-0.00315689
0.951221,0.616374,11.418,0.0103669,-0.00314324
0.959766,0.621325,11.518,0.0104194,-0.00321869
0.968164,0.626289,11.618,0.0105726,-0.00324902
0.976074,0.628116,11.718,0.0106519,-0.00330796
0.984473,0.633214,11.818,0.0107694,-0.00334989
0.992773,0.634353,11.918,0.0108055,-0.00336434
1.00142,0.63696,12.018,0.0109476,-0.0034108
1.00977,0.643497,12.118,0.0110007,-0.0034195
1.01821,0.648378,12.218,0.0110629,-0.00346449
1.02642,0.648983,12.318,0.0112382,-0.00336922
1.03477,0.654027,12.418,0.0112576,-0.0034336
1.04321,0.6575,12.518,0.0113813,-0.0034369
1.05171,0.661257,12.618,0.011464,-0.00343892
1.05972,0.66623,12.718,0.0115994,-0.00352652
1.06777,0.666051,12.818,0.011651,-0.00355292
1.07612,0.669579,12.918,0.0116935,-0.00357298
1.08496,0.672953,13.018,0.0118046,-0.00360809
1.09312,0.675705,13.118,0.0118665,-0.00364836
1.10127,0.677785,13.218,0.011977,-0.00365583
1.10933,0.681916,13.318,0.0120314,-0.00365195
1.11802,0.68863,13.418,0.0122176,-0.00372115
1.12646,0.689868,13.518,0.0122741,-0.00374621
1.13447,0.693646,13.618,0.012364,-0.00376015
1.14258,0.695909,13.718,0.0124999,-0.00386669
1.15107,0.701923,13.818,0.0126299,-0.00386626
1.15967,0.701181,13.918,0.0127679,-0.00390054
1.16812,0.704257,14.018,0.0127679,-0.00390054
1.17617,0.709609,14.118,0.0130086,-0.00396537
1.18457,0.711936,14.218,0.0130601,-0.00393202
1.19292,0.716139,14.318,0.0131172,-0.00389022
1.20151,0.718672,14.418,0.0132151,-0.00382959
1.20981,0.721867,14.518,0.0132895,-0.00385986
1.21816,0.723478,14.618,0.0133809,-0.00387308
1.22627,0.726329,14.718,0.0134095,-0.00392269
1.23457,0.728824,14.818,0.0135337,-0.00394788
1.24307,0.731012,14.918,0.0136033,-0.00397296
1.25161,0.735233,15.018,0.0136364,-0.00403664
1.25967,0.738275,15.118,0.0137771,-0.00411939
1.26772,0.741529,15.218,0.013862,-0.00411932
1.27607,0.743841,15.318,0.0140863,-0.00424286
1.28477,0.744479,15.418,0.0141191,-0.00426703
1.29287,0.752014,15.518,0.0142451,-0.00429735
1.30098,0.751741,15.618,0.0143751,-0.00431599
1.30913,0.754615,15.718,0.0144058,-0.00433645
1.31792,0.760716,15.818,0.0145016,-0.00433104
1.32646,0.759725,15.918,0.0145644,-0.00436594
1.33457,0.764741,16.018,0.0146534,-0.00435345
1.34263,0.766749,16.118,0.0147409,-0.00432164
1.35112,0.769523,16.218,0.0148475,-0.00440681
1.35972,0.772128,16.318,0.0149103,-0.00439398
1.36816,0.775877,16.418,0.0150164,-0.00442231
1.37617,0.774322,16.518,0.0151868,-0.00450502
1.38462,0.783813,16.618,0.0152718,-0.00447564
1.39292,0.782196,16.718,0.0154644,-0.00452275
1.40151,0.783561,16.818,0.0155559,-0.00446646
1.40981,0.789353,16.918,0.0156642,-0.00449198
1.41807,0.789445,17.018,0.0157338,-0.00451558
1.42617,0.790915,17.118,0.0158188,-0.00457084
1.43447,0.797033,17.218,0.0159087,-0.00464335
1.44292,0.798896,17.318,0.0159261,-0.00467716
1.45137,0.79907,17.418,0.0160368,-0.00485005
1.45942,0.801671,17.518,0.0160717,-0.00487388
1.46748,0.806843,17.618,0.0161816,-0.00492137
1.47593,0.806616,17.718,0.0162229,-0.00480753
1.48472,0.809054,17.818,0.0162618,-0.0048497
1.49292,0.809904,17.918,0.0164566,-0.00486513
1.50103,0.814018,18.018,0.0165247,-0.0048727
1.50913,0.813451,18.118,0.0166799,-0.00491319
1.51782,0.818714,18.218,0.0168392,-0.00493841
1.52637,0.818662,18.318,0.0169858,-0.00495503
1.53447,0.824218,18.418,0.0170401,-0.0049838
1.54263,0.824922,18.518,0.0171311,-0.00499425
1.55107,0.82752,18.618,0.0173136,-0.00503027
1.55967,0.829155,18.718,0.0173807,-0.00499864
1.56816,0.830119,18.818,0.0174919,-0.00506127
1.57617,0.829588,18.918,0.0175858,-0.00507806
1.58452,0.831581,19.018,0.0176935,-0.00508219
1.59277,0.833975,19.118,0.0177671,-0.00508342
1.60127,0.836625,19.218,0.0178125,-0.00507994
1.60952,0.838868,19.318,0.0180059,-0.00520699
1.61777,0.841124,19.418,0.0180719,-0.00517289
1.62593,0.840941,19.518,0.018179,-0.00527934
1.63433,0.847394,19.618,0.0182481,-0.00529381
1.64292,0.849635,19.718,0.0184198,-0.00527596
1.65146,0.847802,19.818,0.0184868,-0.00536815
1.65962,0.85396,19.918,0.0185153,-0.00540986
1.66768,0.853247,20.018,0.0186795,-0.00542703
1.67603,0.850569,20.118,0.0186795,-0.00542703
1.68472,0.853511,20.218,0.0188448,-0.00545739
1.69282,0.85741,20.318,0.0188699,-0.0054878
1.70088,0.858272,20.418,0.0190445,-0.00554482
1.70898,0.857374,20.518,0.0191311,-0.00555761
1.71772,0.861252,20.618,0.0191836,-0.00549862
1.72632,0.862427,20.718,0.0193811,-0.00557436
1.73442,0.863331,20.818,0.0194956,-0.00560662
1.74243,0.864148,20.918,0.0196668,-0.00564274
1.75088,0.864667,21.018,0.0197322,-0.00566648
1.75928,0.866711,21.118,0.0199864,-0.00575479
1.76768,0.866526,21.218,0.0200515,-0.00573763
1.77563,0.869039,21.318,0.0201192,-0.00576415
1.78398,0.868718,21.418,0.0202596,-0.00576444
1.79229,0.873422,21.518,0.0203767,-0.00578072
1.80088,0.875575,21.618,0.0204861,-0.0058092
1.80928,0.87725,21.718,0.0205291,-0.00581155
1.81763,0.876748,21.818,0.0206747,-0.00589892
1.82588,0.876897,21.918,0.0207438,-0.00584952
1.83423,0.878102,22.018,0.0207787,-0.00588809
1.84272,0.877082,22.118,0.0209135,-0.0059232
1.85117,0.880044,22.218,0.0209639,-0.00595432
1.85933,0.882619,22.318,0.0211719,-0.00600907
1.86748,0.882331,22.418,0.0212536,-0.00601229
1.87607,0.883127,22.518,0.0213822,-0.00603479
1.88496,0.885873,22.618,0.0215415,-0.00607753
1.89321,0.882812,22.718,0.021562,-0.00609577
1.90146,0.884133,22.818,0.0217496,-0.00614894
1.90962,0.886124,22.918,0.0217732,-0.00614441
1.91836,0.88861,23.018,0.0219579,-0.0062165
1.92676,0.889494,23.118,0.0219959,-0.0061945
1.93477,0.890175,23.218,0.0221415,-0.00625845
1.94282,0.891649,23.318,0.0223148,-0.00621036
1.95127,0.889928,23.418,0.0223636,-0.00619975
1.95981,0.888877,23.518,0.0225593,-0.00622642
1.96831,0.89175,23.618,0.0226329,-0.00625189
1.97632,0.890498,23.718,0.0228897,-0.0063441
1.98472,0.891151,23.818,0.0229735,-0.00633749
1.99302,0.895949,23.918,0.0230539,-0.00637195
2.00156,0.893185,24.018,0.0231845,-0.00642856
2.00981,0.89127,24.118,0.0233146,-0.00641523
2.01807,0.892782,24.218,0.0234078,-0.00647135
2.02617,0.897349,24.318,0.0234812,-0.00647697
2.03447,0.897413,24.418,0.0236422,-0.00652223
2.04307,0.891152,24.518,0.0236551,-0.0064879
2.05161,0.8962,24.618,0.0237893,-0.00657681
2.05972,0.896729,24.718,0.023842,-0.0066504
2.06782,0.89498,24.818,0.0239985,-0.0066397
2.07617,0.896897,24.918,0.0241053,-0.00669232
2.08486,0.898318,25.018,0.0241797,-0.00671379
2.09297,0.897357,25.118,0.0243482,-0.00670131
2.10107,0.893273,25.218,0.0245211,-0.00668401
2.10913,0.903951,25.318,0.0246158,-0.00671634
2.11787,0.898957,25.418,0.0247421,-0.00670548
2.12637,0.900761,25.518,0.0248145,-0.00668188
2.13452,0.897868,25.618,0.0250281,-0.00673864
2.14253,0.899401,25.718,0.0251057,-0.00675206
2.15098,0.904366,25.818,0.0252654,-0.00681632
2.15947,0.900253,25.918,0.0253953,-0.00685804
2.16782,0.898739,26.018,0.0255514,-0.0068658
2.17573,0.900732,26.118,0.0256496,-0.00688083
2.18413,0.901988,26.218,0.0257089,-0.00691281
2.19243,0.8973573,26.318,0.0259886,-0.00695931
2.20103,0.901083,26.418,0.0260681,-0.00701012
2.20942,0.900104,26.518,0.0261964,-0.00696294
2.21772,0.898687,26.618,0.0263044,-0.00696984
2.22598,0.900807,26.718,0.026456,-0.00708009
2.23433,0.90108,26.818,0.0265781,-0.00708535
2.24292,0.900415,26.918,0.0266497,-0.00705763
2.25142,0.903191,27.018,0.0267863,-0.00708814
2.25952,0.906445,27.118,0.0268523,-0.00708345
2.26758,0.904208,27.218,0.0269503,-0.00722051
2.27603,0.902492,27.318,0.0270193,-0.00719616
2.28486,0.900739,27.418,0.0271402,-0.00725521
2.29307,0.901457,27.518,0.0273305,-0.007319
2.30122,0.903696,27.618,0.0274043,-0.00729915
2.30928,0.903469,27.718,0.0276738,-0.00733218
2.31797,0.904285,27.818,0.0277924,-0.0074151
2.32646,0.903391,27.918,0.0279774,-0.00741302
2.33452,0.902246,28.018,0.0280375,-0.00739614
2.34263,0.903863,28.118,0.0281186,-0.00745228
2.35107,0.900984,28.218,0.0283712,-0.00744177
2.35962,0.901848,28.318,0.0283712,-0.00744177
2.36812,0.902205,28.418,0.0286188,-0.00752789
2.37612,0.903212,28.518,0.0287604,-0.00749331
2.38457,0.902573,28.618,0.0289382,-0.00762822
2.39282,0.898912,28.718,0.0289956,-0.0075383
2.40137,0.905618,28.818,0.0290992,-0.00768525
2.40957,0.901425,28.918,0.0293242,-0.00761972
2.41782,0.902294,29.018,0.0294501,-0.00765312
2.42593,0.905144,29.118,0.0295815,-0.00766777
2.43423,0.899837,29.218,0.0297792,-0.00773119
2.44277,0.899992,29.318,0.0299224,-0.00778306
2.45122,0.898006,29.418,0.0300116,-0.00779522
2.45937,0.897251,29.518,0.0300812,-0.00786544
2.46738,0.895424,29.618,0.0302838,-0.00787139
2.47583,0.89619,29.718,0.0303644,-0.00787184
2.48452,0.897351,29.818,0.0304782,-0.00791118
2.49268,0.896052,29.918,0.0305004,-0.0078698
2.50073,0.897889,30.018,0.0307966,-0.00790301
2.50894,0.897969,30.118,0.0308599,-0.00798654
2.51777,0.897951,30.218,0.0309312,-0.00799922
2.52642,0.897672,30.318,0.0312597,-0.00803467
2.53457,0.896049,30.418,0.031351,-0.00808679
2.54268,0.898446,30.518,0.0315428,-0.00808745
2.55117,0.8965,30.618,0.0316276,-0.00805197
2.55972,0.895556,30.718,0.0319165,-0.00811395
2.56816,0.897523,30.818,0.0320144,-0.00817529
2.57612,0.897965,30.918,0.0320864,-0.00821385
2.58457,0.896047,31.018,0.032254,-0.00815328
2.59292,0.896989,31.118,0.0324363,-0.00824738
2.60151,0.892354,31.218,0.0326,-0.00826373
2.60986,0.456422,31.318,0.0326533,-0.0082874
2.61069,-0.08607933,31.328,0.0326533,-0.0082874