File: Raw_Data./Tensile Nozzle 0.4 mm/90 Degrees/LH0.2_90D_N0.4/Test 2.csv
Crosshead ,Crosshead ini,Load ,Load ini,Time ,Strain 1 ,Strain 2 ,Strain 3 ,Strain 4 ,PoissonRatio ,,,
0,0.00078125,0,0.00646808,0.112,-3.07E-05,6.15E-06,-4.12E-05,-3.95E-05,-19.9958,-0.00078125,0.00078125,-0.00646808
0.001513672,0.002294922,-0.000361385,0.006106695,0.212,-4.57E-05,5.78E-06,-1.71E-05,-1.51E-05,-12.6392,-0.00078125,,-0.00646808
0.003710938,0.004492188,0.003822187,0.0102903,0.312,-2.37E-05,-9.32E-06,-1.24E-05,-2.40E-05,39.2732,-0.00078125,,-0.00646808
0.006738281,0.007519531,0.006791758,0.0132598,0.412,-3.37E-05,-1.69E-05,2.69E-06,-4.14E-06,49.9924,-0.00078125,,-0.00646808
0.009765625,0.0105469,0.009190926,0.015659,0.512,-2.75E-05,-1.45E-05,1.98E-05,1.79E-06,52.6753,-0.00078125,,-0.00646808
0.0132324,0.0140137,0.0139933,0.0204614,0.612,1.65E-05,-1.89E-05,5.74E-05,4.89E-05,-114.789,-0.00078125,,-0.00646808
0.01640625,0.0171875,0.0197702,0.0262383,0.712,4.46E-05,-2.59E-05,7.05E-05,6.58E-05,-58.0935,-0.00078125,,-0.00646808
0.02001953,0.02080078,0.0258312,0.0322993,0.812,8.91E-05,-3.81E-05,0.000116371,0.000111521,-42.7974,-0.00078125,,-0.00646808
0.0233887,0.0241699,0.0283734,0.0348415,0.912,0.000116624,-4.80E-05,0.000138539,0.000135462,-41.1895,-0.00078125,,-0.00646808
0.0273926,0.0281738,0.0360268,0.0424949,1.012,0.000161975,-7.48E-05,0.000219967,0.000183163,-46.1827,-0.00078125,,-0.00646808
0.03125,0.03203125,0.0428371,0.0493052,1.112,0.000207708,-5.68E-05,0.000223721,0.00021515,-27.3277,-0.00078125,,-0.00646808
0.0349609,0.0357422,0.0454546,0.0519227,1.212,0.000230948,-4.92E-05,0.000307379,0.000240437,-21.2938,-0.00078125,,-0.00646808
0.0383789,0.0391602,0.05367792,0.060146,1.312,0.000335071,-5.10E-05,0.00033439,0.000325341,-15.2244,-0.00078125,,-0.00646808
0.042041,0.0428223,0.0541676,0.0606356,1.412,0.000339154,-6.41E-05,0.000349982,0.000332178,-18.8922,-0.00078125,,-0.00646808
0.0456055,0.0463867,0.0585646,0.0650327,1.512,0.00037037,-8.51E-05,0.000375124,0.000360334,-22.9864,-0.00078125,,-0.00646808
0.0488281,0.0496094,0.0634584,0.0699264,1.612,0.000393115,-7.28E-05,0.000403297,0.000385381,-18.5122,-0.00078125,,-0.00646808
0.0521973,0.0529785,0.0708651,0.0773332,1.712,0.000393115,-9.42E-05,0.000440454,0.000385381,-23.952,-0.00078125,,-0.00646808
0.0556641,0.0564453,0.0727528,0.0792209,1.812,0.000447323,-8.99E-05,0.000450209,0.000441577,-20.0968,-0.00078125,,-0.00646808
0.0595215,0.0603027,0.07820851,0.08467659,1.912,0.000464793,-0.000143528,0.000495775,0.000459351,-30.88,-0.00078125,,-0.00646808
0.0631348,0.063916,0.0838037,0.0902718,2.012,0.000512362,-0.000100223,0.000526805,0.000519198,-19.561,-0.00078125,,-0.00646808
0.0667969,0.0675781,0.0885356,0.0950037,2.112,0.000577573,-4.92E-05,0.000602589,0.000593572,-8.51368,-0.00078125,,-0.00646808
0.0700195,0.0708008,0.0949045,0.101373,2.212,0.000649475,-3.15E-05,0.00067267,0.000658188,-4.84922,-0.00078125,,-0.00646808
0.0736816,0.0744629,0.0989336,0.105402,2.312,0.000688777,-5.08E-05,0.000707699,0.00067569,-7.38229,-0.00078125,,-0.00646808
0.07724609,0.07802734,0.101474,0.107942,2.412,0.000707562,-7.82E-05,0.000764024,0.000689239,-11.0559,-0.00078125,,-0.00646808
0.080957,0.0817383,0.10933,0.115798,2.512,0.000769096,-8.70E-05,0.000794544,0.000781436,-11.307,-0.00078125,,-0.00646808
0.0841309,0.0849121,0.109747,0.116215,2.612,0.000802742,-0.000100994,0.000860808,0.000812027,-12.5811,-0.00078125,,-0.00646808
0.0875488,0.0883301,0.1174,0.123868,2.712,0.000876425,-8.71E-05,0.000892919,0.000858629,-9.93625,-0.00078125,,-0.00646808
0.0907227,0.0915039,0.119995,0.126463,2.812,0.000908352,-9.38E-05,0.000923734,0.000900886,-10.3232,-0.00078125,,-0.00646808
0.0944824,0.0952637,0.124229,0.130697,2.912,0.000959848,-8.79E-05,0.000980849,0.000943959,-9.15421,-0.00078125,,-0.00646808
0.097998,0.0987793,0.129928,0.136396,3.012,0.000982466,-0.000101106,0.00100224,0.000973766,-10.291,-0.00078125,,-0.00646808
0.101318,0.1021,0.135243,0.141711,3.112,0.00101165,-8.83E-05,0.0010455,0.000990258,-8.72475,-0.00078125,,-0.00646808
0.104297,0.105078,0.136981,0.143449,3.212,0.00108202,-0.000111457,0.00109376,0.00106642,-10.3008,-0.00078125,,-0.00646808
0.107861,0.108643,0.143677,0.150145,3.312,0.00110508,-0.000145306,0.00113645,0.00107844,-13.1489,-0.00078125,,-0.00646808
0.111426,0.112207,0.147404,0.153872,3.412,0.00115076,-0.000126292,0.00116298,0.00113044,-10.9747,-0.00078125,,-0.00646808
0.115039,0.11582,0.149994,0.156462,3.512,0.00118049,-0.000132552,0.00118601,0.00114843,-11.2286,-0.00078125,,-0.00646808
0.118604,0.119385,0.160017,0.166485,3.612,0.00118186,-0.000167786,0.00118597,0.00115485,-14.1968,-0.00078125,,-0.00646808
0.122119,0.1229,0.162547,0.169015,3.712,0.00118186,-0.000167786,0.00118597,0.00115485,-14.1968,-0.00078125,,-0.00646808
0.125684,0.126465,0.166362,0.17283,3.812,0.00125819,-0.000172248,0.0012997,0.00122293,-13.6901,-0.00078125,,-0.00646808
0.12915,0.129932,0.17144,0.177908,3.912,0.00137053,-0.000197378,0.00136986,0.00132756,-14.4016,-0.00078125,,-0.00646808
0.132568,0.13335,0.176707,0.183175,4.012,0.00137144,-0.000208986,0.00139421,0.00133124,-15.2384,-0.00078125,,-0.00646808
0.135596,0.136377,0.178264,0.184732,4.112,0.00140674,-0.0001821,0.00142235,0.00138522,-12.9448,-0.00078125,,-0.00646808
0.13877,0.139551,0.184975,0.191443,4.212,0.00143151,-0.000179261,0.00143329,0.0013979,-12.5225,-0.00078125,,-0.00646808
0.141943,0.142725,0.188515,0.194983,4.312,0.00148349,-0.000237788,0.00149971,0.00146617,-16.029,-0.00078125,,-0.00646808
0.145361,0.146143,0.192562,0.199031,4.412,0.00151242,-0.000210527,0.00152892,0.00149806,-13.9199,-0.00078125,,-0.00646808
0.148828,0.149609,0.199601,0.206069,4.512,0.0014999,-0.000206801,0.00154031,0.00148753,-13.7877,-0.00078125,,-0.00646808
0.152441,0.153223,0.201435,0.207903,4.612,0.00155376,-0.000216063,0.00156926,0.0015343,-13.9058,-0.00078125,,-0.00646808
0.1559082,0.156689,0.208442,0.21491,4.712,0.00159411,-0.000243461,0.00164941,0.00157609,-15.2725,-0.00078125,,-0.00646808
0.159814,0.160596,0.213005,0.219473,4.812,0.00166534,-0.000261273,0.001679,0.00163813,-15.6889,-0.00078125,,-0.00646808
0.163379,0.16416,0.214505,0.220973,4.912,0.00169093,-0.000243671,0.00170498,0.00166649,-14.4105,-0.00078125,,-0.00646808
0.166748,0.167529,0.221167,0.227635,5.012,0.00174492,-0.000230721,0.00176645,0.0017373,-13.2224,-0.00078125,,-0.00646808
0.169482,0.170264,0.223712,0.23018,5.112,0.00178321,-0.000246219,0.00178953,0.00175664,-13.8076,-0.00078125,,-0.00646808
0.172559,0.17334,0.226833,0.233301,5.212,0.00178602,-0.000213986,0.00183864,0.00178019,-11.9812,-0.00078125,,-0.00646808
0.175781,0.176563,0.230893,0.237361,5.312,0.00183608,-0.000209335,0.00185444,0.00182382,-11.4012,-0.00078125,,-0.00646808
0.179297,0.180078,0.234075,0.240543,5.412,0.00186109,-0.000196266,0.00187992,0.00183698,-10.5458,-0.00078125,,-0.00646808
0.182373,0.183154,0.24231,0.248778,5.512,0.00189404,-0.000212092,0.00191288,0.00189156,-11.1979,-0.00078125,,-0.00646808
0.185742,0.186523,0.244702,0.25117,5.612,0.00193164,-0.000223251,0.00193926,0.00192246,-11.5576,-0.00078125,,-0.00646808
0.18916,0.189941,0.246857,0.253325,5.712,0.00195514,-0.000217384,0.00197565,0.00196092,-11.1186,-0.00078125,,-0.00646808
0.192969,0.19375,0.254462,0.26093,5.812,0.00197903,-0.00021115,0.00199274,0.00197987,-10.6694,-0.00078125,,-0.00646808
0.196729,0.19751,0.259168,0.265636,5.912,0.0020138,-0.000209932,0.00203741,0.0020081,-10.4247,-0.00078125,,-0.00646808
0.200391,0.201172,0.265109,0.271577,6.012,0.00205404,-0.000287065,0.00205282,0.00202701,-13.9756,-0.00078125,,-0.00646808
0.203271,0.204053,0.268688,0.275156,6.112,0.00207063,-0.000245208,0.00211268,0.00206393,-11.8422,-0.00078125,,-0.00646808
0.206445,0.207227,0.270607,0.2770755,6.212,0.00212414,-0.000253224,0.00212021,0.00209266,-11.9212,-0.00078125,,-0.00646808
0.209424,0.210205,0.276741,0.283209,6.312,0.0021456,-0.000299083,0.00213924,0.00211904,-13.9394,-0.00078125,,-0.00646808
0.212793,0.213574,0.280046,0.286514,6.412,0.00218625,-0.000251741,0.00219326,0.00215976,-11.5147,-0.00078125,,-0.00646808
0.215869,0.21665,0.281918,0.288387,6.512,0.00222416,-0.000299611,0.00221707,0.0021844,-13.4707,-0.00078125,,-0.00646808
0.219238,0.22002,0.287049,0.293518,6.612,0.0022399,-0.000286328,0.00224753,0.00220165,-12.7831,-0.00078125,,-0.00646808
0.222363,0.223145,0.289807,0.296276,6.712,0.00225652,-0.000301558,0.00225853,0.00222135,-13.3639,-0.00078125,,-0.00646808
0.225977,0.226758,0.298245,0.304713,6.812,0.00226882,-0.000349993,0.00239658,0.0022361,-15.4262,-0.00078125,,-0.00646808
0.229688,0.230469,0.302744,0.3092117,6.912,0.00239868,-0.000355961,0.00238785,0.00234924,-14.8399,-0.00078125,,-0.00646808
0.23335,0.234131,0.304583,0.311051,7.012,0.00237742,-0.000317274,0.00239475,0.00236815,-13.3453,-0.00078125,,-0.00646808
0.236426,0.237207,0.308229,0.314697,7.112,0.00244741,-0.000318296,0.00246021,0.00240979,-13.0054,-0.00078125,,-0.00646808
0.239893,0.240674,0.312419,0.318888,7.212,0.00253325,-0.000355688,0.00252318,0.00247277,-14.0408,-0.00078125,,-0.00646808
0.243115,0.243896,0.318735,0.325203,7.312,0.00254867,-0.000378833,0.00254738,0.00247659,-14.8639,-0.00078125,,-0.00646808
0.246436,0.247217,0.319385,0.325853,7.412,0.00257121,-0.000352019,0.00256896,0.00252241,-13.6908,-0.00078125,,-0.00646808
0.249316,0.250098,0.324119,0.330587,7.512,0.00259153,-0.000386565,0.00263702,0.00253592,-14.9165,-0.00078125,,-0.00646808
0.25249,0.253271,0.327864,0.334332,7.612,0.00266979,-0.000387743,0.00266244,0.00260831,-14.5234,-0.00078125,,-0.00646808
0.255713,0.256494,0.332051,0.338519,7.712,0.00266979,-0.000387743,0.00266244,0.00260831,-14.5234,-0.00078125,,-0.00646808
0.259326,0.260107,0.335321,0.341789,7.812,0.00273548,-0.000381647,0.00273026,0.00268908,-13.9517,-0.00078125,,-0.00646808
0.262695,0.263477,0.340911,0.347379,7.912,0.00274925,-0.000412816,0.00274725,0.00269081,-15.0156,-0.00078125,,-0.00646808
0.266211,0.266992,0.343989,0.350457,8.012,0.00280649,-0.00038401,0.00282515,0.00274734,-13.6829,-0.00078125,,-0.00646808
0.269287,0.270068,0.347836,0.354304,8.112,0.00285478,-0.000383623,0.0028374,0.00278948,-13.4379,-0.00078125,,-0.00646808
0.272754,0.273535,0.351303,0.357771,8.212,0.00288074,-0.000363503,0.00289868,0.00281523,-12.6184,-0.00078125,,-0.00646808
0.276123,0.276904,0.352049,0.358517,8.312,0.00294888,-0.000336309,0.00293829,0.0028818,-11.4046,-0.00078125,,-0.00646808
0.279785,0.280566,0.359144,0.365613,8.412,0.00296105,-0.000354241,0.00295083,0.0029046,-11.9634,-0.00078125,,-0.00646808
0.28291,0.283691,0.363253,0.369721,8.512,0.00299184,-0.000314733,0.00297737,0.00292627,-10.5197,-0.00078125,,-0.00646808
0.28623,0.287012,0.366838,0.373306,8.612,0.00301333,-0.000348449,0.00300037,0.00294348,-11.5636,-0.00078125,,-0.00646808
0.289307,0.290088,0.367257,0.373725,8.712,0.00305091,-0.000333711,0.00307023,0.00298645,-10.9381,-0.00078125,,-0.00646808
0.292822,0.293604,0.375052,0.38152,8.812,0.00307933,-0.000340649,0.00307645,0.00301938,-11.0624,-0.00078125,,-0.00646808
0.29624,0.297021,0.37771,0.384178,8.912,0.0030996,-0.000339719,0.00309631,0.00302647,-10.9601,-0.00078125,,-0.00646808
0.299707,0.300488,0.382349,0.388817,9.012,0.00320168,-0.000363258,0.00319962,0.00313506,-11.3459,-0.00078125,,-0.00646808
0.302588,0.303369,0.386104,0.392572,9.112,0.00320859,-0.000349997,0.00321442,0.00314988,-10.9081,-0.00078125,,-0.00646808
0.305859,0.306641,0.389579,0.3960466,9.212,0.00324656,-0.000363326,0.00326142,0.00319444,-11.1911,-0.00078125,,-0.00646808
0.30918,0.309961,0.391191,0.39766,9.312,0.00325554,-0.00038067,0.00326466,0.00319448,-11.693,-0.00078125,,-0.00646808
0.312793,0.313574,0.397783,0.404252,9.412,0.0032628,-0.00039795,0.00331137,0.00320396,-12.1966,-0.00078125,,-0.00646808
0.316162,0.316943,0.402598,0.409066,9.512,0.00333337,-0.000415383,0.00333979,0.00328016,-12.4614,-0.00078125,,-0.00646808
0.319775,0.320557,0.403896,0.410365,9.612,0.0033681,-0.000418283,0.00338076,0.00331141,-12.419,-0.00078125,,-0.00646808
0.323047,0.323828,0.406623,0.413091,9.712,0.00340787,-0.00042146,0.00341608,0.00334724,-12.3673,-0.00078125,,-0.00646808
0.326563,0.327344,0.409917,0.416385,9.812,0.00340787,-0.00042146,0.00341608,0.00334724,-12.3673,-0.00078125,,-0.00646808
0.329785,0.330566,0.415002,0.42147,9.912,0.00345063,-0.000428129,0.00345823,0.00341698,-12.4073,-0.00078125,,-0.00646808
0.333105,0.333887,0.418867,0.425335,10.012,0.00347618,-0.00044894,0.00349769,0.00345372,-12.9148,-0.00078125,,-0.00646808
0.335986,0.336768,0.421739,0.428207,10.112,0.00352498,-0.000411396,0.00362525,0.00350096,-11.6709,-0.00078125,,-0.00646808
0.33916,0.339941,0.42502,0.431488,10.212,0.00362209,-0.000471886,0.00360284,0.00355359,-13.028,-0.00078125,,-0.00646808
0.342285,0.343066,0.429858,0.436326,10.312,0.00359717,-0.000471792,0.00359236,0.00356031,-13.1156,-0.00078125,,-0.00646808
0.345703,0.346484,0.43338,0.439848,10.412,0.00361302,-0.000527313,0.00361431,0.003581,-14.5948,-0.00078125,,-0.00646808
0.349121,0.349902,0.438492,0.44496,10.512,0.00365566,-0.000494608,0.00366219,0.00362533,-13.5299,-0.00078125,,-0.00646808
0.352637,0.353418,0.439727,0.446196,10.612,0.00369369,-0.000480712,0.00368685,0.0036354,-13.0144,-0.00078125,,-0.00646808
0.356055,0.356836,0.445339,0.451807,10.712,0.0037067,-0.000490154,0.00370535,0.0036755,-13.2235,-0.00078125,,-0.00646808
0.359863,0.360645,0.448333,0.454801,10.812,0.00374642,-0.000526821,0.00375263,0.00371163,-14.062,-0.00078125,,-0.00646808
0.363379,0.36416,0.453596,0.460064,10.912,0.00378249,-0.000510994,0.00377216,0.00373389,-13.5095,-0.00078125,,-0.00646808
0.366748,0.367529,0.453866,0.460334,11.012,0.00378319,-0.000540125,0.00378055,0.00374921,-14.277,-0.00078125,,-0.00646808
0.369385,0.370166,0.457095,0.463563,11.112,0.00383945,-0.000509375,0.0038522,0.00382396,-13.2669,-0.00078125,,-0.00646808
0.372461,0.373242,0.460285,0.466753,11.212,0.0038697,-0.000495878,0.00387494,0.00383746,-12.8144,-0.00078125,,-0.00646808
0.375684,0.376465,0.461317,0.467785,11.312,0.00395037,-0.00054077,0.00395497,0.00389863,-13.6891,-0.00078125,,-0.00646808
0.379199,0.37998,0.467662,0.47413,11.412,0.00396796,-0.00051443,0.00396875,0.00393062,-12.9646,-0.00078125,,-0.00646808
0.382324,0.383105,0.469757,0.476226,11.512,0.00399458,-0.000509161,0.00397294,0.00393141,-12.7463,-0.00078125,,-0.00646808
0.385645,0.386426,0.473619,0.480087,11.612,0.00411313,-0.000455937,0.00409699,0.0040158,-11.0849,-0.00078125,,-0.00646808
0.389111,0.389893,0.474486,0.480954,11.712,0.00408441,-0.000488194,0.00407368,0.00400588,-11.95262,-0.00078125,,-0.00646808
0.39292,0.393701,0.482799,0.489267,11.812,0.00412108,-0.000481677,0.00411375,0.00404131,-11.6881,-0.00078125,,-0.00646808
0.39668,0.397461,0.485735,0.492203,11.912,0.00415513,-0.000484311,0.0041567,0.00409175,-11.6557,-0.00078125,,-0.00646808
0.400293,0.401074,0.491265,0.497733,12.012,0.00423717,-0.000539939,0.00422904,0.00414969,-12.7429,-0.00078125,,-0.00646808
0.403125,0.403906,0.49537,0.501838,12.112,0.00427405,-0.000517001,0.00427559,0.00420768,-12.0963,-0.00078125,,-0.00646808
0.406348,0.407129,0.497361,0.503829,12.212,0.00428872,-0.000534693,0.00427608,0.00418727,-12.4674,-0.00078125,,-0.00646808
0.409375,0.410156,0.498809,0.505277,12.312,0.00432135,-0.000537599,0.00431366,0.00425817,-12.4405,-0.00078125,,-0.00646808
0.412744,0.413525,0.503586,0.510055,12.412,0.00430888,-0.000478345,0.00430319,0.00425285,-11.1014,-0.00078125,,-0.00646808
0.41582,0.416602,0.5055437,0.512012,12.512,0.00437454,-0.000526654,0.00437387,0.00431509,-12.0391,-0.00078125,,-0.00646808
0.419189,0.419971,0.51051,0.516978,12.612,0.00440256,-0.000502301,0.00439735,0.00432926,-11.4093,-0.00078125,,-0.00646808
0.422363,0.423145,0.513749,0.520217,12.712,0.00444651,-0.00053428,0.00442363,0.00435142,-12.0157,-0.00078125,,-0.00646808
0.426025,0.426807,0.517225,0.523693,12.812,0.0044466,-0.000581362,0.00442584,0.00437908,-13.0743,-0.00078125,,-0.00646808
0.429736,0.430518,0.518881,0.525349,12.912,0.00447392,-0.000545387,0.00452062,0.0044254,-12.1904,-0.00078125,,-0.00646808
0.43335,0.434131,0.523458,0.529926,13.012,0.00456542,-0.000538863,0.0045299,0.00446467,-11.8031,-0.00078125,,-0.00646808
0.436426,0.437207,0.523831,0.530299,13.112,0.00457122,-0.000593016,0.00455799,0.00449539,-12.9728,-0.00078125,,-0.00646808
0.439941,0.440723,0.531661,0.538129,13.212,0.00462984,-0.000559533,0.00461637,0.00455481,-12.0854,-0.00078125,,-0.00646808
0.443213,0.443994,0.530306,0.536774,13.312,0.00464572,-0.000546603,0.00464114,0.0045687,-11.7657,-0.00078125,,-0.00646808
0.446533,0.447314,0.536914,0.543383,13.412,0.00474653,-0.00054099,0.00473784,0.0045895,-11.3976,-0.00078125,,-0.00646808
0.449414,0.450195,0.539323,0.545791,13.512,0.00477823,-0.000558292,0.00476811,0.00468257,-11.6841,-0.00078125,,-0.00646808
0.452686,0.453467,0.542651,0.549119,13.612,0.00480595,-0.000590666,0.00475845,0.00467994,-12.2903,-0.00078125,,-0.00646808
0.455957,0.456738,0.542972,0.54944,13.712,0.00478957,-0.000629285,0.00478818,0.00470902,-13.1387,-0.00078125,,-0.00646808
0.459668,0.460449,0.551075,0.557543,13.812,0.00483747,-0.000580898,0.00483679,0.00474061,-12.0083,-0.00078125,,-0.00646808
0.463037,0.463818,0.54807,0.554538,13.912,0.00494744,-0.000613945,0.00493944,0.00482764,-12.4093,-0.00078125,,-0.00646808
0.466504,0.467285,0.555971,0.562439,14.012,0.00495811,-0.000629621,0.00495532,0.00485817,-12.6988,-0.00078125,,-0.00646808
0.469629,0.47041,0.557317,0.563785,14.112,0.00500311,-0.000603888,0.00500811,0.00488878,-12.0703,-0.00078125,,-0.00646808
0.473096,0.473877,0.561299,0.567767,14.212,0.00502944,-0.000625745,0.00504593,0.00495289,-12.4416,-0.00078125,,-0.00646808
0.476465,0.477246,0.563111,0.569579,14.312,0.0050336,-0.00062057,0.00505667,0.00495798,-12.3286,-0.00078125,,-0.00646808
0.480127,0.480908,0.563948,0.570416,14.412,0.00506092,-0.000657545,0.00506772,0.00500542,-12.9926,-0.00078125,,-0.00646808
0.483203,0.483984,0.570695,0.577164,14.512,0.00508106,-0.000632488,0.00509215,0.00502991,-12.448,-0.00078125,,-0.00646808
0.486572,0.487354,0.574184,0.5806521,14.612,0.00515361,-0.000576396,0.00516815,0.0051153,-11.1843,-0.00078125,,-0.00646808
0.4896,0.490381,0.577929,0.584397,14.712,0.00517489,-0.000594019,0.00519093,0.00513223,-11.4789,-0.00078125,,-0.00646808
0.493115,0.493896,0.579421,0.585889,14.812,0.00519049,-0.000584135,0.00523935,0.00516058,-11.2539,-0.00078125,,-0.00646808
0.496484,0.497266,0.581641,0.588109,14.912,0.00527681,-0.000551128,0.00528231,0.00522098,-10.4443,-0.00078125,,-0.00646808
0.499951,0.500732,0.587259,0.593727,15.012,0.00527791,-0.000591169,0.00529716,0.00523488,-11.2008,-0.00078125,,-0.00646808
0.502783,0.503564,0.587389,0.593857,15.112,0.00530243,-0.000583504,0.00531556,0.00526465,-11.0045,-0.00078125,,-0.00646808
0.506006,0.506787,0.589788,0.596256,15.212,0.00532028,-0.000591071,0.00533042,0.0052942,-11.1098,-0.00078125,,-0.00646808
0.509326,0.510107,0.592173,0.598641,15.312,0.00538305,-0.000581948,0.00539501,0.0053478,-10.8107,-0.00078125,,-0.00646808
0.512939,0.513721,0.594758,0.601227,15.412,0.00539984,-0.000582711,0.00539568,0.00535709,-10.7913,-0.00078125,,-0.00646808
0.516309,0.51709,0.60074,0.607208,15.512,0.00540916,-0.000605552,0.00541964,0.00537278,-11.1949,-0.00078125,,-0.00646808
0.519971,0.520752,0.603615,0.610083,15.612,0.00544455,-0.000594449,0.00543502,0.00538149,-10.9182,-0.00078125,,-0.00646808
0.523145,0.523926,0.607034,0.613502,15.712,0.00547584,-0.000623869,0.00548771,0.00540952,-11.3931,-0.00078125,,-0.00646808
0.52666,0.527441,0.607955,0.614423,15.812,0.00551148,-0.000609982,0.00550709,0.00543574,-11.0675,-0.00078125,,-0.00646808
0.529883,0.530664,0.609443,0.615911,15.912,0.00551148,-0.000609982,0.00550709,0.00543574,-11.0675,-0.00078125,,-0.00646808
0.533252,0.534033,0.613326,0.619794,16.012,0.00560715,-0.000614123,0.00561292,0.00553317,-10.9525,-0.00078125,,-0.00646808
0.536084,0.536865,0.614309,0.620777,16.112,0.00563445,-0.000636317,0.00563014,0.0055502,-11.2933,-0.00078125,,-0.00646808
0.539258,0.540039,0.617271,0.623739,16.212,0.00565235,-0.000650351,0.0056672,0.00556102,-11.5059,-0.00078125,,-0.00646808
0.542334,0.543115,0.621582,0.62805,16.312,0.00570817,-0.000631994,0.00569761,0.00560949,-11.0717,-0.00078125,,-0.00646808
0.545801,0.546582,0.625229,0.631697,16.412,0.00575181,-0.000626494,0.00576765,0.005658,-10.8921,-0.00078125,,-0.00646808
0.54917,0.549951,0.627802,0.63427,16.512,0.00578853,-0.000634226,0.00577644,0.00569101,-10.9566,-0.00078125,,-0.00646808
0.552734,0.553516,0.629798,0.636266,16.612,0.00580523,-0.000648038,0.00579277,0.00571129,-11.163,-0.00078125,,-0.00646808
0.556055,0.556836,0.6337489,0.640217,16.712,0.00585787,-0.000668565,0.00584905,0.0057647,-11.4131,-0.00078125,,-0.00646808
0.559863,0.560645,0.634706,0.641174,16.812,0.00587397,-0.000656219,0.00586877,0.00578302,-11.1716,-0.00078125,,-0.00646808
0.563428,0.564209,0.63892,0.645388,16.912,0.00589625,-0.000674806,0.00591194,0.00581068,-11.4447,-0.00078125,,-0.00646808
0.566797,0.567578,0.643774,0.650242,17.012,0.00594565,-0.000677303,0.0059339,0.00584767,-11.3916,-0.00078125,,-0.00646808
0.569434,0.570215,0.644082,0.65055,17.112,0.00596257,-0.00066732,0.00598419,0.0058676,-11.1918,-0.00078125,,-0.00646808
0.57251,0.573291,0.646904,0.653372,17.212,0.0060131,-0.000673973,0.00599586,0.00592089,-11.2084,-0.00078125,,-0.00646808
0.575732,0.576514,0.647466,0.653934,17.312,0.00602568,-0.000660864,0.00601622,0.00593877,-10.9675,-0.00078125,,-0.00646808
0.579248,0.580029,0.650771,0.65724,17.412,0.00607351,-0.000669804,0.00605102,0.00598241,-11.0283,-0.00078125,,-0.00646808
0.582324,0.583105,0.654659,0.661127,17.512,0.00612245,-0.000642653,0.00610078,0.00601772,-10.4967,-0.00078125,,-0.00646808
0.585645,0.586426,0.655996,0.662465,17.612,0.006162,-0.00069567,0.00613189,0.00603584,-11.2897,-0.00078125,,-0.00646808
0.589062,0.589844,0.658186,0.664654,17.712,0.00616647,-0.000677862,0.00614139,0.00605591,-10.9927,-0.00078125,,-0.00646808
0.592871,0.593652,0.662422,0.66889,17.812,0.00618867,-0.000674729,0.00621702,0.00605998,-10.9026,-0.00078125,,-0.00646808
0.596631,0.597412,0.665158,0.671626,17.912,0.0062384,-0.000674729,0.00621702,0.00610693,-10.8157,-0.00078125,,-0.00646808
0.600195,0.600977,0.668361,0.674829,18.012,0.00629468,-0.000681102,0.00625918,0.00614097,-10.8203,-0.00078125,,-0.00646808
0.603027,0.603809,0.670834,0.677302,18.112,0.00628578,-0.000634532,0.00627443,0.00615184,-10.0947,-0.00078125,,-0.00646808
0.606201,0.606982,0.674536,0.681004,18.212,0.00634753,-0.00065951,0.00632198,0.00619221,-10.39,-0.00078125,,-0.00646808
0.609229,0.61001,0.677213,0.683681,18.312,0.0063639,-0.000651466,0.00635374,0.00621355,-10.2369,-0.00078125,,-0.00646808
0.612598,0.613379,0.677733,0.684201,18.412,0.00641219,-0.000633881,0.00638867,0.00625634,-9.88556,-0.00078125,,-0.00646808
0.615674,0.616455,0.679043,0.685511,18.512,0.00644995,-0.000622038,0.00645845,0.00628199,-9.64407,-0.00078125,,-0.00646808
0.618994,0.619775,0.68158,0.688048,18.612,0.00653044,-0.000641545,0.00652424,0.00637053,-9.82392,-0.00078125,,-0.00646808
0.6222168,0.622998,0.681747,0.688215,18.712,0.00655952,-0.000637436,0.00655047,0.00639212,-9.71772,-0.00078125,,-0.00646808
0.625879,0.62666,0.685319,0.691787,18.812,0.00660768,-0.000641696,0.00659081,0.0064415,-9.71137,-0.00078125,,-0.00646808
0.629688,0.630469,0.688743,0.695211,18.912,0.00661009,-0.000651596,0.00659401,0.00644034,-9.8576,-0.00078125,,-0.00646808
0.63335,0.634131,0.692724,0.699192,19.012,0.00663774,-0.000650453,0.00665328,0.00649632,-9.79931,-0.00078125,,-0.00646808
0.636426,0.637207,0.694392,0.70086,19.112,0.00667626,-0.00066239,0.00667414,0.00655015,-9.92157,-0.00078125,,-0.00646808
0.639941,0.640723,0.698686,0.705154,19.212,0.0066886,-0.000676422,0.00672186,0.00657604,-10.1131,-0.00078125,,-0.00646808
0.643213,0.643994,0.701569,0.708037,19.312,0.00676288,-0.000688584,0.00675879,0.00665387,-10.1818,-0.00078125,,-0.00646808
0.646582,0.647363,0.702728,0.709196,19.412,0.00679016,-0.000686808,0.00678726,0.00667805,-10.1148,-0.00078125,,-0.00646808
0.649414,0.650195,0.704955,0.711423,19.512,0.00681927,-0.000691596,0.00680898,0.00671184,-10.1418,-0.00078125,,-0.00646808
0.652637,0.653418,0.706681,0.713149,19.612,0.0068307,-0.000694195,0.00682073,0.00673512,-10.1629,-0.00078125,,-0.00646808
0.655908,0.656689,0.708584,0.715052,19.712,0.00686095,-0.000680796,0.00686257,0.0067667,-9.92277,-0.00078125,,-0.00646808
0.65957,0.660352,0.711409,0.717877,19.812,0.00689355,-0.000679324,0.00687891,0.00679458,-9.85449,-0.00078125,,-0.00646808
0.662891,0.663672,0.713874,0.720342,19.912,0.00690863,-0.000685206,0.00692357,0.00681283,-9.91812,-0.00078125,,-0.00646808
0.666357,0.667139,0.715265,0.721733,20.012,0.0069297,-0.000685206,0.00692357,0.0068256,-9.88796,-0.00078125,,-0.00646808
0.669385,0.670166,0.717563,0.724031,20.112,0.00699336,-0.00065412,0.00696302,0.00685871,-9.35344,-0.00078125,,-0.00646808
0.6729,0.673682,0.720372,0.72684,20.212,0.00701142,-0.000691411,0.00697751,0.00686704,-9.86121,-0.00078125,,-0.00646808
0.67627,0.677051,0.721266,0.727734,20.312,0.00702761,-0.000722237,0.00698802,0.0068785,-10.2771,-0.00078125,,-0.00646808
0.679883,0.680664,0.723078,0.729546,20.412,0.00704614,-0.000694214,0.00704448,0.00689726,-9.8524,-0.00078125,,-0.00646808
0.683008,0.683789,0.726708,0.733176,20.512,0.0071171,-0.000691847,0.0070645,0.00694623,-9.72091,-0.00078125,,-0.00646808
0.686328,0.687109,0.726752,0.73322,20.612,0.00713993,-0.000687765,0.00712508,0.00696899,-9.63266,-0.00078125,,-0.00646808
0.689355,0.690137,0.728576,0.735044,20.712,0.0071963,-0.000673828,0.00714375,0.00701032,-9.36353,-0.00078125,,-0.00646808
0.692871,0.693652,0.725534,0.732003,20.812,0.00722943,-0.000663359,0.00716391,0.0070214,-9.17581,-0.00078125,,-0.00646808
0.694238,0.69502,-0.009175912,-0.002707832,20.851,0.00724242,-0.000651648,0.0071683,0.00701282,-8.99766,-0.00078125,,-0.00646808