File: Raw_Data./Tensile Nozzle 0.4 mm/0 Degrees/LH0.2_0D_N0.4/Test Run 2 05-19-21 11 18 29 AM/DAQ- Crosshead, … - (Timed).csv
"File Path: G:\TT\2\Test Run 2 05-19-21 11 18 29 AM\DAQ- Crosshead, … - (Timed).csv   "
"Test: Robin_Tension_4_DIC_Signals 2"
"Test Run: Test Run 2"
"Date: 18/05/2021 13:33:06"
""
""
"Crosshead ","Load ","Time ","Strain 1 ","Strain 2 ","Strain 3 ","Strain 4 ","PoissonRatio "
"mm","kN","sec","mm/mm","mm/mm","mm/mm","mm/mm","%"
"0.000341797","-0.0808019","0.113","-5.09147e-05","-3.74085e-05","-4.63085e-05","-2.03752e-05","73.4729"
"0.00380859","-0.0763352","0.313","-4.70136e-05","-5.62246e-05","-4.64576e-05","3.73603e-05","119.592"
"0.00986328","-0.0704536","0.513","1.63343e-05","1.33786e-05","1.28798e-07","-1.815e-05","81.9049"
"0.0166992","-0.065917","0.713","6.21818e-05","4.62011e-05","4.90562e-05","-2.27769e-05","74.3"
"0.0246094","-0.057367","0.913","8.21546e-05","7.69946e-05","7.20283e-05","-4.45876e-05","93.7192"
"0.0318848","-0.0499653","1.113","0.000128028","0.000148046","0.00012722","-6.33451e-05","115.636"
"0.039209","-0.0431183","1.313","0.000202898","0.000161524","0.000162308","-0.00012392","79.6085"
"0.0458984","-0.0369834","1.513","0.000237957","0.000206129","0.000230192","-0.000140047","86.6245"
"0.0532715","-0.0254078","1.713","0.000294777","0.000249747","0.000260378","-0.000131607","84.724"
"0.0606445","-0.0206654","1.913","0.000343826","0.000357379","0.000322633","-0.000240257","103.942"
"0.0675781","-0.010558","2.113","0.000423992","0.000434939","0.00036888","-0.000276241","102.582"
"0.0749023","-0.00573848","2.313","0.000457628","0.00050006","0.000471155","-0.000311663","109.272"
"0.0815918","0.00181836","2.513","0.00057547","0.000553264","0.000531915","-0.000350352","96.1412"
"0.0885254","0.0105306","2.713","0.000629972","0.000633439","0.000615959","-0.00034645","100.55"
"0.0953613","0.0165056","2.913","0.000710297","0.000690724","0.000691717","-0.000377949","97.2444"
"0.101953","0.0222851","3.113","0.00081216","0.000788663","0.000792533","-0.000414697","97.1069"
"0.109131","0.0307403","3.313","0.000849722","0.000838443","0.000861449","-0.000454244","98.6726"
"0.11626","0.0394183","3.513","0.000899937","0.000897073","0.000880208","-0.000494059","99.6818"
"0.123242","0.0479923","3.713","0.000919427","0.000948543","0.000940534","-0.000475088","103.167"
"0.129639","0.0521688","3.913","0.000961757","0.000980625","0.000941982","-0.000491506","101.962"
"0.136035","0.0582729","4.113","0.000977862","0.00096145","0.000929874","-0.00052254","98.3216"
"0.142969","0.064025","4.313","0.000985421","0.00100993","0.000962392","-0.000554861","102.487"
"0.150098","0.0718856","4.513","0.00105342","0.00107803","0.00102223","-0.000579658","102.336"
"0.157568","0.0781962","4.713","0.00112115","0.00112142","0.0010733","-0.000692884","100.024"
"0.163574","0.0853252","4.913","0.00120266","0.00122286","0.00119247","-0.000707514","101.68"
"0.169922","0.0913424","5.113","0.00126201","0.00129994","0.00127097","-0.000730726","103.006"
"0.176563","0.0997879","5.313","0.00143652","0.00143085","0.00135164","-0.000718313","99.6053"
"0.18335","0.105846","5.513","0.00150796","0.00149499","0.00144276","-0.000757059","99.1399"
"0.190967","0.114978","5.713","0.00159682","0.00158136","0.00154135","-0.000809635","99.0318"
"0.197412","0.120741","5.913","0.00167053","0.0016678","0.001623","-0.0008117","99.8366"
"0.203613","0.126571","6.113","0.00173685","0.00173299","0.00170846","-0.000841587","99.7778"
"0.209961","0.132166","6.313","0.00175648","0.001777","0.00175275","-0.00087296","101.168"
"0.216455","0.138112","6.513","0.00177224","0.00178007","0.00175475","-0.000877061","100.442"
"0.223828","0.147976","6.713","0.00178647","0.001802","0.00178152","-0.000884633","100.869"
"0.230518","0.154139","6.913","0.0018104","0.00184757","0.00178046","-0.000914818","102.053"
"0.237207","0.156131","7.113","0.00180384","0.0018293","0.00174435","-0.00095406","101.411"
"0.243408","0.163292","7.313","0.0018558","0.00187386","0.00180649","-0.000995966","100.973"
"0.249854","0.168833","7.513","0.0019069","0.0019429","0.00187768","-0.000976456","101.888"
"0.256885","0.176714","7.713","0.00195731","0.00196705","0.0019333","-0.00105252","100.498"
"0.263428","0.181544","7.913","0.00211589","0.00210329","0.00202227","-0.00111479","99.4045"
"0.270313","0.188085","8.113","0.00225192","0.00222864","0.00211557","-0.00111086","98.9662"
"0.277051","0.195957","8.313","0.00232964","0.0023025","0.00225525","-0.00113793","98.835"
"0.283447","0.202004","8.513","0.00244525","0.00240858","0.00237839","-0.00118923","98.5004"
"0.290381","0.21022","8.713","0.00252823","0.00249374","0.00245921","-0.00122454","98.6358"
"0.29668","0.216689","8.913","0.00259582","0.00259625","0.00254716","-0.001232","100.017"
"0.30332","0.21899","9.113","0.00262188","0.00264385","0.0025712","-0.0012505","100.838"
"0.310303","0.228549","9.313","0.00262796","0.00266603","0.00258108","-0.00124921","101.449"
"0.317188","0.234393","9.513","0.00264653","0.00269923","0.00262069","-0.00129105","101.991"
"0.323877","0.239726","9.713","0.00264027","0.00271526","0.00260055","-0.00127752","102.84"
"0.330078","0.246148","9.913","0.00268373","0.00274767","0.00262589","-0.00132343","102.383"
"0.336377","0.251415","10.113","0.0027187","0.00274496","0.00267723","-0.00134972","100.966"
"0.343213","0.255946","10.313","0.00278495","0.00280353","0.00274809","-0.00125888","100.667"
"0.350146","0.265639","10.513","0.00289411","0.00291648","0.00282098","-0.00145375","100.773"
"0.35752","0.269664","10.713","0.00296475","0.00300437","0.00287541","-0.001453","101.336"
"0.363477","0.276453","10.913","0.00307864","0.00309157","0.00300117","-0.00151697","100.42"
"0.369824","0.281108","11.113","0.00314637","0.003126","0.00305017","-0.00152541","99.3526"
"0.376416","0.286599","11.313","0.00325718","0.00323434","0.00317129","-0.00156926","99.2988"
"0.383252","0.290975","11.513","0.00334325","0.00333856","0.00327458","-0.00156639","99.8597"
"0.390869","0.302636","11.713","0.00341372","0.00341198","0.00332522","-0.00162323","99.949"
"0.397266","0.304535","11.913","0.00344178","0.00349101","0.00337823","-0.00163844","101.43"
"0.403613","0.308077","12.113","0.00345697","0.00352232","0.00337714","-0.00166385","101.89"
"0.41001","0.316702","12.313","0.0035074","0.00354805","0.00344945","-0.00166991","101.159"
"0.416553","0.320933","12.513","0.0035337","0.00357824","0.0034687","-0.0017214","101.26"
"0.423975","0.327885","12.713","0.00359492","0.00364204","0.00353321","-0.00167666","101.311"
"0.430566","0.331364","12.913","0.00368102","0.00370305","0.00360461","-0.00172114","100.598"
"0.437354","0.340933","13.113","0.00374985","0.00377538","0.00367256","-0.00164407","100.681"
"0.443506","0.343789","13.313","0.0037918","0.00384048","0.00376867","-0.00183398","101.284"
"0.450098","0.350852","13.513","0.00389088","0.0039198","0.00383171","-0.00186485","100.743"
"0.45708","0.353544","13.713","0.00396353","0.00399136","0.00389212","-0.00189128","100.702"
"0.463672","0.358637","13.913","0.00401445","0.00401571","0.00392072","-0.00188926","100.031"
"0.470605","0.367348","14.113","0.00405176","0.00407542","0.00401203","-0.0019583","100.584"
"0.477295","0.372208","14.313","0.0041316","0.00411155","0.00402044","-0.00198011","99.5147"
"0.483691","0.377397","14.513","0.00421452","0.004227","0.00411911","-0.00201365","100.296"
"0.490625","0.380906","14.713","0.00425606","0.0042833","0.00417665","-0.0020237","100.64"
"0.496875","0.387187","14.913","0.00431789","0.00437822","0.00423568","-0.00200929","101.397"
"0.503467","0.394331","15.113","0.0044067","0.0044361","0.00430943","-0.00204318","100.667"
"0.510449","0.394551","15.313","0.00445452","0.00449122","0.00436911","-0.0020507","100.824"
"0.517334","0.401962","15.513","0.00454544","0.00456604","0.00445816","-0.00209472","100.453"
"0.524023","0.407463","15.713","0.00462","0.00465262","0.00454362","-0.00211145","100.706"
"0.530225","0.409385","15.913","0.00470726","0.0047499","0.00462982","-0.00205099","100.906"
"0.536475","0.414835","16.113","0.00472788","0.00479309","0.00465056","-0.00203207","101.379"
"0.543359","0.421042","16.313","0.00476573","0.00483415","0.004722","-0.00223985","101.436"
"0.550244","0.42474","16.513","0.00480259","0.00483404","0.00471398","-0.00226742","100.655"
"0.557617","0.430018","16.713","0.00482688","0.00488206","0.00478358","-0.00229525","101.143"
"0.563574","0.437999","16.913","0.00487027","0.00489755","0.00478803","-0.00232673","100.56"
"0.569922","0.441419","17.113","0.00491107","0.00497094","0.00483958","-0.00234386","101.219"
"0.576465","0.445055","17.313","0.00495105","0.00502324","0.00488429","-0.00237179","101.458"
"0.583252","0.451991","17.513","0.005093","0.00511812","0.00501255","-0.00235073","100.493"
"0.590918","0.454696","17.713","0.00519011","0.00522089","0.00505731","-0.00238322","100.593"
"0.597314","0.463469","17.913","0.00526588","0.00527584","0.0051565","-0.00240889","100.189"
"0.603564","0.466039","18.113","0.00544768","0.0054305","0.00528967","-0.00242517","99.6846"
"0.609961","0.469442","18.313","0.00547334","0.00549287","0.00535849","-0.00239999","100.357"
"0.616504","0.475514","18.513","0.00555066","0.00557775","0.00546008","-0.00243848","100.488"
"0.623975","0.479904","18.713","0.00558632","0.00563877","0.00549284","-0.00248549","100.939"
"0.630713","0.486286","18.913","0.00563176","0.00573404","0.00556456","-0.00258883","101.816"
"0.6375","0.486934","19.113","0.00566442","0.00573605","0.00559215","-0.0026312","101.265"
"0.643652","0.494404","19.313","0.00565099","0.00576311","0.00559586","-0.00265354","101.984"
"0.650195","0.49912","19.513","0.00566892","0.0057526","0.00559242","-0.00267509","101.476"
"0.657227","0.503186","19.713","0.00570618","0.00581635","0.00562728","-0.00268492","101.931"
"0.663721","0.506559","19.913","0.00577799","0.00584073","0.00566449","-0.00269922","101.086"
"0.670605","0.51501","20.113","0.00581833","0.00587746","0.00572749","-0.00272617","101.016"
"0.677197","0.51853","20.313","0.00593457","0.00598267","0.00580861","-0.00276048","100.811"
"0.683594","0.521352","20.513","0.00603095","0.00605401","0.00590432","-0.00277992","100.382"
"0.69043","0.526901","20.713","0.0061951","0.00617048","0.00603216","-0.00276525","99.6026"
"0.69668","0.531951","20.913","0.00624915","0.00627377","0.0061221","-0.0027838","100.394"
"0.70332","0.535077","21.113","0.00638342","0.00640343","0.00624518","-0.00280051","100.313"
"0.710156","0.544429","21.313","0.0064181","0.00646706","0.00628894","-0.00285061","100.763"
"0.717041","0.545996","21.513","0.00645111","0.00654743","0.0063719","-0.0027991","101.493"
"0.723779","0.553668","21.713","0.00647716","0.00658273","0.00641891","-0.00293127","101.63"
"0.730029","0.554983","21.913","0.00651297","0.00661411","0.00641808","-0.00299914","101.553"
"0.736328","0.558283","22.113","0.00650458","0.00664596","0.00641529","-0.00301129","102.174"
"0.743213","0.563168","22.313","0.00650584","0.00664371","0.0064178","-0.00302961","102.119"
"0.750244","0.568047","22.513","0.00656719","0.00665971","0.00649839","-0.00304522","101.409"
"0.757568","0.574196","22.713","0.00664717","0.00675621","0.00655109","-0.00308137","101.64"
"0.763525","0.576443","22.913","0.00672972","0.00682012","0.0066495","-0.00311386","101.343"
"0.769873","0.580579","23.113","0.00681403","0.00686474","0.00668176","-0.00306794","100.744"
"0.776465","0.584481","23.313","0.00689007","0.006963","0.00677843","-0.00309612","101.058"
"0.78335","0.589974","23.513","0.00699675","0.00701074","0.00685841","-0.00313691","100.2"
"0.790967","0.591377","23.713","0.00710791","0.00710417","0.00698767","-0.00318588","99.9474"
"0.797412","0.602247","23.913","0.00712417","0.00721103","0.00708547","-0.00314994","101.219"
"0.803613","0.603949","24.113","0.00721972","0.00730333","0.00714647","-0.00316396","101.158"
"0.810107","0.604866","24.313","0.00726434","0.00737123","0.00719312","-0.00317336","101.471"
"0.81665","0.612477","24.513","0.00731276","0.00743433","0.00722886","-0.00327939","101.662"
"0.824121","0.616749","24.713","0.00734897","0.00747291","0.00725407","-0.00333975","101.686"
"0.830811","0.622563","24.913","0.00739047","0.00750483","0.00729026","-0.00333503","101.547"
"0.837549","0.625992","25.113","0.0074257","0.00755469","0.00735246","-0.00338906","101.737"
"0.843652","0.62714","25.313","0.00740834","0.0076271","0.00741689","-0.00339275","102.953"
"0.850049","0.635336","25.513","0.00745464","0.0076584","0.00745797","-0.00338675","102.733"
"0.85708","0.6383","25.713","0.00749567","0.00772672","0.0075123","-0.00344251","103.082"
"0.863623","0.641405","25.913","0.00759005","0.00780334","0.00761078","-0.00344002","102.81"
"0.870508","0.645748","26.113","0.00767608","0.00788735","0.00766245","-0.00344648","102.752"
"0.877197","0.651831","26.313","0.00779332","0.00791554","0.00773666","-0.00348602","101.568"
"0.883545","0.657456","26.513","0.00787622","0.00796654","0.0077996","-0.00347152","101.147"
"0.890527","0.658646","26.713","0.00792966","0.00802514","0.00784902","-0.00344973","101.204"
"0.89668","0.660965","26.913","0.0079833","0.00806169","0.0079093","-0.00345507","100.982"
"0.903369","0.66551","27.113","0.00805518","0.00817642","0.00798422","-0.0034735","101.505"
"0.910352","0.672178","27.313","0.00810261","0.00825703","0.0080386","-0.00364873","101.906"
"0.917236","0.675689","27.513","0.00814099","0.00827651","0.00809437","-0.00364383","101.665"
"0.923975","0.68156","27.713","0.00820704","0.00836853","0.00816365","-0.00364879","101.968"
"0.930029","0.683925","27.913","0.00823578","0.00843265","0.00822092","-0.00366119","102.39"
"0.936279","0.686185","28.113","0.00830495","0.00852132","0.00831667","-0.00371189","102.605"
"0.943018","0.691027","28.313","0.00836641","0.00863544","0.00837557","-0.00371867","103.216"
"0.95","0.694854","28.513","0.00842079","0.00867989","0.00842414","-0.00370271","103.077"
"0.957373","0.7014","28.713","0.00848142","0.00873231","0.00846042","-0.00370445","102.958"
"0.963428","0.704401","28.913","0.00856239","0.00875591","0.00851059","-0.00374673","102.26"
"0.969775","0.709953","29.113","0.00863542","0.00879454","0.00857404","-0.00376951","101.843"
"0.976416","0.711813","29.313","0.00866827","0.00882428","0.00861254","-0.0037977","101.8"
"0.983252","0.716956","29.513","0.00872831","0.00887256","0.00865296","-0.00378177","101.653"
"0.990869","0.72333","29.713","0.00876432","0.00893195","0.00867359","-0.00375995","101.913"
"0.997412","0.725494","29.913","0.00882327","0.00897135","0.00875164","-0.00377113","101.678"
"1.00361","0.727694","30.113","0.00888727","0.00905037","0.00881934","-0.00394763","101.835"
"1.01001","0.733698","30.313","0.00899138","0.00913518","0.00895373","-0.00394361","101.599"
"1.0166","0.737027","30.513","0.00907542","0.00923455","0.00900473","-0.0039841","101.753"
"1.02393","0.740558","30.713","0.00918526","0.00936726","0.00913491","-0.00398598","101.981"
"1.03057","0.744203","30.913","0.00929411","0.00947961","0.00924716","-0.00400639","101.996"
"1.03726","0.750358","31.113","0.00932557","0.00952578","0.00931159","-0.00402454","102.147"
"1.04341","0.753188","31.313","0.00944063","0.00959557","0.00935546","-0.00401023","101.641"
"1.0499","0.757909","31.513","0.00946124","0.0096165","0.00936289","-0.00404652","101.641"
"1.05698","0.759154","31.713","0.00951549","0.00963782","0.00937615","-0.00403499","101.286"
"1.06357","0.762582","31.913","0.00948795","0.00960118","0.00936701","-0.00406543","101.193"
"1.07046","0.769356","32.113","0.00948785","0.00963359","0.00937589","-0.00404908","101.536"
"1.0772","0.771306","32.313","0.00952594","0.00967355","0.00942021","-0.00407222","101.55"
"1.08354","0.776846","32.513","0.00955859","0.00972519","0.00950655","-0.00407577","101.743"
"1.09053","0.780938","32.713","0.00963929","0.0097955","0.00961021","-0.00406168","101.621"
"1.09673","0.786622","32.913","0.00973788","0.00990915","0.00966555","-0.00424283","101.759"
"1.10347","0.788331","33.113","0.00984468","0.00995573","0.00976225","-0.00423815","101.128"
"1.1104","0.79306","33.313","0.0100064","0.0101057","0.00990447","-0.00425049","100.992"
"1.11729","0.795681","33.513","0.0101272","0.010215","0.0100116","-0.00429541","100.867"
"1.12412","0.801116","33.713","0.0101994","0.0103027","0.0100755","-0.00431074","101.013"
"1.13032","0.805327","33.913","0.0102619","0.0103693","0.0101549","-0.00430234","101.047"
"1.13672","0.809608","34.113","0.0102952","0.0104186","0.010181","-0.0043355","101.199"
"1.1436","0.811483","34.313","0.0103248","0.0104521","0.010184","-0.00434216","101.233"
"1.15068","0.8138","34.513","0.0103486","0.0104941","0.0102007","-0.00437109","101.406"
"1.15806","0.817946","34.713","0.0103578","0.0105253","0.0102203","-0.00437915","101.617"
"1.16396","0.821157","34.913","0.0103589","0.0105292","0.0102262","-0.00441133","101.644"
"1.17036","0.825522","35.113","0.0103862","0.0105766","0.0102981","-0.00438401","101.833"
"1.17681","0.828365","35.313","0.0104499","0.0106209","0.0103491","-0.00440524","101.636"
"1.18364","0.832285","35.513","0.0105288","0.010692","0.0104487","-0.00440183","101.55"
"1.19111","0.834614","35.713","0.0106383","0.0107631","0.0105331","-0.00454005","101.173"
"1.19746","0.838811","35.913","0.0107646","0.0108542","0.0106556","-0.00456481","100.832"
"1.20361","0.844785","36.113","0.0108823","0.0109509","0.0107568","-0.00458753","100.63"
"1.20996","0.84705","36.313","0.0109515","0.0110123","0.0108337","-0.00459568","100.555"
"1.2165","0.850095","36.513","0.011048","0.0111021","0.0109253","-0.00463582","100.49"
"1.22378","0.854396","36.713","0.0110795","0.0111653","0.0109544","-0.00464011","100.774"
"1.23047","0.857876","36.913","0.0111306","0.0112723","0.0110162","-0.00466377","101.273"
"1.23721","0.862286","37.113","0.0111487","0.0113129","0.0110004","-0.00467998","101.473"
"1.24346","0.868327","37.313","0.011176","0.0113331","0.0110631","-0.00469789","101.406"
"1.24995","0.870749","37.513","0.0112117","0.0113721","0.0110827","-0.00469612","101.431"
"1.25698","0.874623","37.713","0.0112587","0.011412","0.0110955","-0.00471983","101.362"
"1.26362","0.876103","37.913","0.0113084","0.0114723","0.0111706","-0.00470419","101.449"
"1.27041","0.878833","38.113","0.01133","0.0115068","0.0112447","-0.00471395","101.56"
"1.27715","0.88481","38.313","0.0114555","0.0115955","0.0113455","-0.00485938","101.222"
"1.28345","0.888237","38.513","0.0115141","0.0116449","0.0113759","-0.00486866","101.136"
"1.29043","0.89104","38.713","0.0115973","0.0116002","0.0114751","-0.00488675","100.025"
"1.29668","0.894433","38.913","0.0116643","0.0116794","0.0115281","-0.00493206","100.129"
"1.30337","0.89867","39.113","0.0117443","0.0117588","0.0116104","-0.00493754","100.123"
"1.31035","0.904307","39.313","0.0118006","0.0118366","0.0116421","-0.00493145","100.305"
"1.31729","0.90522","39.513","0.0118589","0.0119037","0.0117218","-0.00496649","100.378"
"1.32412","0.909154","39.713","0.0119263","0.0120458","0.0117801","-0.00499291","101.002"
"1.33027","0.908975","39.913","0.0119626","0.0121146","0.0118164","-0.00500492","101.271"
"1.33672","0.913548","40.113","0.012021","0.0120904","0.0118856","-0.00503076","100.577"
"1.34351","0.922119","40.313","0.0120908","0.0121414","0.0119541","-0.00509864","100.418"
"1.35054","0.92456","40.513","0.0121454","0.0121904","0.0120254","-0.00504806","100.371"
"1.35776","0.928641","40.713","0.0122371","0.0122531","0.012089","-0.00507043","100.131"
"1.36367","0.926059","40.913","0.012312","0.0123372","0.0121639","-0.00510265","100.205"
"1.36992","0.934359","41.113","0.0123667","0.0123675","0.0121722","-0.00518264","100.006"
"1.37642","0.932734","41.313","0.0124043","0.0124418","0.0122347","-0.00522052","100.302"
"1.3833","0.937573","41.513","0.0124449","0.0124639","0.0122593","-0.00523414","100.153"
"1.39092","0.942771","41.713","0.012465","0.0125175","0.0122996","-0.00523855","100.421"
"1.39741","0.942718","41.913","0.0125269","0.0125662","0.0123853","-0.00529556","100.314"
"1.40356","0.947585","42.113","0.0125971","0.0125974","0.0124236","-0.00530099","100.002"
"1.41001","0.952902","42.313","0.0126346","0.012697","0.0125206","-0.00533833","100.494"
"1.4165","0.955663","42.513","0.0126864","0.0127454","0.0125623","-0.00532338","100.465"
"1.42388","0.960794","42.713","0.0128168","0.0128379","0.0126525","-0.00537241","100.165"
"1.43062","0.963486","42.913","0.0129166","0.0128876","0.0127443","-0.00535866","99.7755"
"1.43735","0.965689","43.113","0.0130043","0.0129981","0.0128402","-0.00535046","99.9523"
"1.44351","0.968463","43.313","0.0130898","0.0130582","0.0129119","-0.00543418","99.7586"
"1.45","0.971252","43.513","0.0131502","0.0131315","0.0129591","-0.00544206","99.8578"
"1.45698","0.974468","43.713","0.0131448","0.0132396","0.0129973","-0.00546272","100.721"
"1.46353","0.97754","43.913","0.0131965","0.0132567","0.013013","-0.00552943","100.456"
"1.47036","0.978225","44.113","0.0132208","0.0133113","0.0130471","-0.00554779","100.685"
"1.4771","0.985289","44.313","0.0132415","0.0133124","0.0130436","-0.00558395","100.535"
"1.4835","0.989219","44.513","0.013266","0.0133414","0.013096","-0.0056157","100.568"
"1.49048","0.992504","44.713","0.0133134","0.0134077","0.0131312","-0.00564763","100.708"
"1.49678","0.994107","44.913","0.0133345","0.0134181","0.0132423","-0.00567422","100.627"
"1.50347","0.998089","45.113","0.0134338","0.0134599","0.0133107","-0.00572036","100.194"
"1.51035","1.00328","45.313","0.0135461","0.0135528","0.0134009","-0.00572181","100.049"
"1.51724","1.0047","45.513","0.0136684","0.0136709","0.0135033","-0.00574959","100.018"
"1.52393","1.00729","45.713","0.0138002","0.0137302","0.0136485","-0.00578367","99.4928"
"1.53013","1.01215","45.913","0.0139134","0.0138587","0.0137252","-0.00584509","99.6069"
"1.53643","1.01508","46.113","0.0139484","0.0139489","0.0137714","-0.00585711","100.004"
"1.54326","1.0134","46.313","0.0139953","0.0140465","0.0138268","-0.0058666","100.366"
"1.5502","1.01967","46.513","0.0140349","0.0141024","0.0138184","-0.0058891","100.481"
"1.55752","1.02163","46.713","0.0140325","0.0141339","0.0138105","-0.00593347","100.723"
"1.56348","1.02433","46.913","0.0140242","0.0141091","0.0138473","-0.00595172","100.605"
"1.56982","1.02751","47.113","0.0140197","0.0141337","0.0138472","-0.00600623","100.813"
"1.57642","1.03097","47.313","0.0140342","0.0142271","0.0138832","-0.00602292","101.374"
"1.5832","1.03285","47.513","0.0140947","0.0142596","0.0139473","-0.00605394","101.17"
"1.59077","1.03807","47.713","0.0141357","0.0142463","0.0140198","-0.00606875","100.782"
"1.59722","1.03952","47.913","0.0142695","0.0143492","0.0141305","-0.00612733","100.559"
"1.60347","1.04209","48.113","0.0143886","0.0144014","0.0142398","-0.00614069","100.089"
"1.60991","1.04637","48.313","0.0144964","0.0144735","0.0143376","-0.00616322","99.842"
"1.61646","1.05082","48.513","0.0146099","0.0145892","0.0144363","-0.00619837","99.8583"
"1.62383","1.04984","48.713","0.0146605","0.0146695","0.0145048","-0.00620248","100.061"
"1.63057","1.05546","48.913","0.0147273","0.014801","0.0145458","-0.0062474","100.5"
"1.6373","1.0563","49.113","0.0147382","0.0148667","0.0145643","-0.00624789","100.872"
"1.64351","1.05877","49.313","0.0147652","0.0149285","0.0145932","-0.00630428","101.106"
"1.65005","1.06123","49.513","0.0147765","0.0149353","0.014609","-0.00629152","101.075"
"1.65713","1.06581","49.713","0.0147748","0.0150018","0.0146146","-0.00635393","101.536"
"1.66372","1.06559","49.913","0.0147768","0.0150382","0.0146462","-0.00638549","101.769"
"1.67061","1.07005","50.113","0.0147951","0.0150269","0.0146906","-0.00640511","101.567"
"1.67734","1.07144","50.313","0.0148857","0.0150796","0.0147996","-0.00642757","101.303"
"1.68369","1.07434","50.513","0.0148388","0.0151292","0.0148637","-0.00648313","101.957"
"1.69067","1.07782","50.713","0.0149025","0.015207","0.0149217","-0.00649956","102.043"
"1.69683","1.07865","50.913","0.0150228","0.0152814","0.0150091","-0.00651374","101.721"
"1.70347","1.08184","51.113","0.0151511","0.015344","0.0151059","-0.00655227","101.273"
"1.7104","1.08626","51.313","0.0152178","0.0154131","0.0151128","-0.0065594","101.283"
"1.71729","1.08538","51.513","0.0152997","0.0154764","0.0151835","-0.0065955","101.155"
"1.72402","1.09021","51.713","0.0153397","0.0155336","0.0152015","-0.00661095","101.264"
"1.73022","1.08994","51.913","0.0153521","0.0155948","0.0152282","-0.00659612","101.581"
"1.73657","1.09481","52.113","0.015381","0.0156873","0.0152445","-0.0066927","101.991"
"1.74336","1.09454","52.313","0.0154344","0.0157196","0.0152721","-0.00666049","101.848"
"1.75034","1.09692","52.513","0.0154604","0.0157512","0.0153061","-0.00665519","101.881"
"1.75771","1.09906","52.713","0.0154838","0.0157851","0.0153682","-0.00668728","101.946"
"1.76372","1.10186","52.913","0.0155429","0.0158445","0.0154319","-0.00672333","101.94"
"1.77002","1.10482","53.113","0.0155698","0.0158889","0.0155224","-0.00671952","102.049"
"1.77656","1.10759","53.313","0.0156542","0.0159461","0.015587","-0.00673888","101.865"
"1.78345","1.10671","53.513","0.0156989","0.0159805","0.015649","-0.00677672","101.794"
"1.79097","1.11065","53.713","0.0157483","0.0159784","0.0157254","-0.00680639","101.461"
"1.79731","1.10927","53.913","0.0158118","0.0159977","0.0157996","-0.00682813","101.176"
"1.80352","1.11537","54.113","0.0158707","0.0160169","0.0158584","-0.00685101","100.921"
"1.80996","1.11574","54.313","0.0159191","0.0160427","0.0158977","-0.0068966","100.776"
"1.8165","1.11611","54.513","0.0159288","0.0161242","0.0159418","-0.0070597","101.227"
"1.82393","1.11732","54.713","0.0159487","0.0161611","0.0159887","-0.00699124","101.332"
"1.83062","1.11477","54.913","0.0159257","0.0162344","0.016077","-0.00698329","101.938"
"1.83735","1.1081","55.113","0.0158636","0.0162601","0.0160243","-0.0069789","102.499"
"1.8436","0.817119","55.313","0.0156909","0.0160843","0.0160782","-0.00703563","102.507"
"1.85024","0.794588","55.513","NaN","0.0157","NaN","-0.00519811","NaN"
"1.85728","0.783497","55.713","NaN","0.0152725","NaN","-0.00479589","NaN"
"1.86382","0.773922","55.913","NaN","0.015037","NaN","-0.00422351","NaN"
"1.87065","0.767581","56.113","NaN","0.0147961","NaN","-0.00438438","NaN"
"1.87725","0.762585","56.313","NaN","0.0145982","NaN","-0.00391527","NaN"
"1.88359","0.763069","56.513","NaN","0.0145609","NaN","-0.00384614","NaN"
"1.89043","0.759013","56.713","NaN","0.0145459","NaN","-0.0038727","NaN"
"1.89673","0.754508","56.913","NaN","0.0144356","NaN","-0.00391466","NaN"
"1.90337","0.749297","57.113","NaN","0.0142332","NaN","-0.00379071","NaN"
"1.9103","0.74869","57.313","NaN","0.0142456","NaN","-0.0036385","NaN"
"1.91724","0.74638","57.513","NaN","0.0142438","NaN","-0.00346486","NaN"
"1.92397","0.746442","57.713","NaN","0.0142883","NaN","-0.00336022","NaN"
"1.93018","0.742578","57.913","NaN","0.0142862","NaN","-0.00322435","NaN"
"1.93652","0.744358","58.113","NaN","0.0141816","NaN","-0.00322652","NaN"
"1.94336","0.743847","58.313","NaN","0.0140355","NaN","-0.00326833","NaN"
"1.95039","0.742787","58.513","NaN","0.0139701","NaN","-0.00343715","NaN"
"1.95776","0.740217","58.713","NaN","0.0139881","NaN","-0.00348238","NaN"
"1.96362","0.735599","58.913","NaN","0.0141319","NaN","-0.0035007","NaN"
"1.96997","0.740278","59.113","NaN","0.014115","NaN","-0.00337253","NaN"
"1.97651","0.736101","59.313","NaN","0.0141412","NaN","-0.00334294","NaN"
"1.98325","0.736321","59.513","NaN","0.0140648","NaN","-0.00331159","NaN"
"1.99087","0.735403","59.713","NaN","0.0139864","NaN","-0.00329845","NaN"
"1.99731","0.735743","59.913","NaN","0.0140138","NaN","-0.00323235","NaN"
"2.00366","0.73194","60.113","NaN","0.014017","NaN","-0.00309449","NaN"
"2.01006","0.729788","60.313","NaN","0.0140876","NaN","-0.0031263","NaN"
"2.0166","0.733546","60.513","NaN","0.0140415","NaN","-0.00296279","NaN"
"2.02402","0.730356","60.713","NaN","0.0139218","NaN","-0.0030061","NaN"
"2.03066","0.732243","60.913","NaN","0.0138601","NaN","-0.0030602","NaN"
"2.03638","-0.0505829","61.08","NaN","0.0138809","NaN","-0.00307766","NaN"