File: Raw_Data./Tensile Nozzle 0.4 mm/90 Degrees/LH0.2_90D_N0.4/Test Run 1 05-19-21 11 09 39 AM/DAQ- Crosshead, … - (Timed).csv
"File Path: G:\TT\8\Test Run 1 05-19-21 11 09 39 AM\DAQ- Crosshead, … - (Timed).csv   "
"Test: Robin_Tension_4_DIC_Signals 8"
"Test Run: Test Run 1"
"Date: 18/05/2021 15:14:19"
""
""
"Crosshead ","Load ","Time ","Strain 1 ","Strain 2 ","Strain 3 ","Strain 4 ","PoissonRatio "
"mm","kN","sec","mm/mm","mm/mm","mm/mm","mm/mm","%"
"0.000878906","-0.00338164","0.122","5.85716e-06","3.17415e-05","3.21166e-06","6.96044e-06","541.926"
"0.00229492","-0.00143599","0.222","-3.06196e-06","2.50021e-05","-1.21941e-06","3.04736e-07","-816.539"
"0.00449219","-0.00188477","0.322","1.85582e-05","4.59007e-06","5.97603e-06","8.06936e-06","24.7334"
"0.0074707","0.00301968","0.422","1.32302e-05","-3.70266e-06","1.05462e-05","4.58112e-06","-27.9864"
"0.0104492","0.00688953","0.522","4.34549e-05","-1.54153e-05","3.91022e-05","3.50795e-05","-35.4742"
"0.0138672","0.0107054","0.622","6.36461e-05","-9.9833e-06","5.01159e-05","4.66995e-05","-15.6856"
"0.017041","0.015189","0.722","8.28725e-05","-3.81247e-05","7.62231e-05","7.08827e-05","-46.004"
"0.0206055","0.0217969","0.822","0.000140581","-5.17047e-05","0.000132683","0.000127121","-36.7793"
"0.0239746","0.0241935","0.922","0.000157447","-5.97129e-05","0.000142683","0.000140361","-37.9257"
"0.0279785","0.0314224","1.022","0.000186104","-0.000102649","0.00017237","0.000182632","-55.1568"
"0.0318848","0.0370432","1.122","0.000202229","-0.00010479","0.000184875","0.000182632","-51.8175"
"0.0355957","0.0420737","1.222","0.000227862","-0.000144656","0.000236793","0.000225298","-63.484"
"0.0390137","0.045275","1.322","0.00027297","-0.000147745","0.000268489","0.000257691","-54.125"
"0.0426758","0.0519364","1.422","0.00027297","-0.000147745","0.000268489","0.000257691","-54.125"
"0.0462402","0.0558186","1.522","0.000349903","-0.000205936","0.000335743","0.000328484","-58.8552"
"0.0495117","0.059092","1.622","0.000373897","-0.000195787","0.000356474","0.000347878","-52.3639"
"0.052832","0.0635681","1.722","0.000388638","-0.000207562","0.000379887","0.000357104","-53.4075"
"0.0563477","0.0721432","1.822","0.000402562","-0.000228647","0.00039795","0.000390856","-56.798"
"0.0602051","0.073763","1.922","0.000420322","-0.000155311","0.000451386","0.000401326","-36.9505"
"0.0638184","0.0798301","2.022","0.000479525","-0.000157","0.000468879","0.000456977","-32.7407"
"0.0674805","0.0835765","2.122","0.000502632","-0.000190509","0.000490198","0.00047343","-37.9023"
"0.070752","0.0883247","2.222","0.000546062","-0.000208722","0.000537685","0.000512099","-38.2231"
"0.0744141","0.0942127","2.322","0.000590727","-0.000205673","0.000583698","0.000555103","-34.8169"
"0.0779297","0.0983954","2.422","0.000622513","-0.00022537","0.000625793","0.000593122","-36.2033"
"0.0816406","0.102046","2.522","0.00065717","-0.000246413","0.000651882","0.000636488","-37.4961"
"0.0848633","0.107004","2.622","0.000672717","-0.000262144","0.000720887","0.000636488","-38.9679"
"0.0882813","0.11371","2.722","0.000755033","-0.000274396","0.000754617","0.000718383","-36.3423"
"0.0915039","0.115214","2.822","0.000767256","-0.000260824","0.000765666","0.000732746","-33.9944"
"0.0952148","0.120332","2.922","0.000810469","-0.000326346","0.000806299","0.000775879","-40.2663"
"0.0987793","0.124882","3.022","0.00084409","-0.000368938","0.000846149","0.000815345","-43.7084"
"0.102051","0.12889","3.122","0.000908203","-0.00036106","0.000902293","0.000852791","-39.7554"
"0.105078","0.131032","3.222","0.000925951","-0.000356348","0.000930081","0.000889032","-38.4845"
"0.108643","0.135722","3.322","0.000948092","-0.000438432","0.000990003","0.000922449","-46.2436"
"0.112207","0.140399","3.422","0.000978935","-0.000438432","0.000990003","0.000960438","-44.7866"
"0.11582","0.143539","3.522","0.000978935","-0.000438432","0.000990003","0.00103343","-44.7866"
"0.119385","0.151038","3.622","0.00107495","-0.000451784","0.00108414","0.00104452","-42.0284"
"0.122949","0.156694","3.722","0.00108092","-0.000463865","0.00109024","0.00104452","-42.9139"
"0.126465","0.16099","3.822","0.00111395","-0.000508701","0.00112079","0.00106938","-45.6664"
"0.129932","0.166578","3.922","0.0011164","-0.000539281","0.00114113","0.00109837","-48.3054"
"0.133398","0.17356","4.022","0.00114455","-0.000548683","0.00115419","0.0011221","-47.9388"
"0.136377","0.17749","4.122","0.00118317","-0.000556449","0.00120547","0.0011636","-47.0304"
"0.1396","0.178647","4.222","0.0011986","-0.000558976","0.00121869","0.00117169","-46.6357"
"0.142822","0.182926","4.322","0.00122985","-0.000595122","0.0012346","0.00120192","-48.3898"
"0.14624","0.189624","4.422","0.00123325","-0.000594904","0.00125895","0.00122266","-48.2387"
"0.149707","0.189425","4.522","0.00129749","-0.000609981","0.00131686","0.00125174","-47.0124"
"0.153271","0.19728","4.622","0.00132207","-0.000601464","0.00133265","0.00129075","-45.4941"
"0.156738","0.199927","4.722","0.00133549","-0.000636451","0.00135192","0.001316","-47.6567"
"0.160645","0.207504","4.822","0.00138856","-0.000666869","0.00141003","0.00137138","-48.0259"
"0.16416","0.209976","4.922","0.00140794","-0.000646593","0.00142861","0.0013939","-45.9248"
"0.167578","0.216069","5.022","0.00145857","-0.000683588","0.0014764","0.00143643","-46.867"
"0.170313","0.218307","5.122","0.00147846","-0.000606221","0.00148967","0.00146007","-41.0035"
"0.173437","0.221905","5.222","0.00153392","-0.000623369","0.00155062","0.00149446","-40.639"
"0.176611","0.226467","5.322","0.00155442","-0.000634089","0.00156347","0.00152283","-40.7926"
"0.180127","0.228664","5.422","0.00156751","-0.000645046","0.00159067","0.00155177","-41.151"
"0.183203","0.235174","5.522","0.00158595","-0.000666688","0.00160565","0.00157757","-42.0371"
"0.186572","0.238212","5.622","0.00167034","-0.000679022","0.00167344","0.0016478","-40.6517"
"0.18999","0.242409","5.722","0.00169044","-0.000702961","0.00170381","0.00167766","-41.5845"
"0.193848","0.243889","5.822","0.00171512","-0.000681598","0.0017216","0.00170033","-39.7405"
"0.197607","0.250974","5.922","0.00175503","-0.000725452","0.00177149","0.00171135","-41.3356"
"0.20127","0.254118","6.022","0.00176915","-0.0007466","0.00178687","0.0017629","-42.2011"
"0.204102","0.260868","6.122","0.0017814","-0.000748939","0.00179436","0.00177533","-42.0422"
"0.207275","0.260619","6.222","0.00181552","-0.000789321","0.00184175","0.00181302","-43.4763"
"0.210303","0.265369","6.322","0.0018411","-0.000785415","0.00186423","0.00183427","-42.6601"
"0.213672","0.270651","6.422","0.00187645","-0.000819458","0.00189649","0.00186901","-43.6707"
"0.216699","0.273949","6.522","0.00190721","-0.000832407","0.00193001","0.00189618","-43.6453"
"0.220068","0.277806","6.622","0.00193892","-0.000851113","0.00196318","0.00192206","-43.8962"
"0.223193","0.283791","6.722","0.00197248","-0.000856316","0.00198853","0.00195338","-43.4132"
"0.226807","0.285431","6.822","0.0019991","-0.000836665","0.00201241","0.00197356","-41.8521"
"0.230566","0.292951","6.922","0.0020473","-0.000912166","0.00205829","0.00201584","-44.5546"
"0.23418","0.294969","7.022","0.002048","-0.000916899","0.00206749","0.0020275","-44.7705"
"0.237256","0.296435","7.122","0.00211797","-0.000930726","0.0021485","0.00209245","-43.9442"
"0.240723","0.301485","7.222","0.00216448","-0.000935818","0.00218498","0.0021195","-43.2352"
"0.243945","0.305112","7.322","0.00221107","-0.000969863","0.00223076","0.00214056","-43.864"
"0.247314","0.3093","7.422","0.0022452","-0.00099554","0.00228125","0.00221424","-44.3408"
"0.250146","0.312124","7.522","0.0022452","-0.00099554","0.00228125","0.00221424","-44.3408"
"0.25332","0.317879","7.622","0.00232672","-0.00102022","0.0023462","0.0022815","-43.848"
"0.256543","0.319777","7.722","0.00233869","-0.00102337","0.00236195","0.0023012","-43.7583"
"0.260156","0.326474","7.822","0.00239985","-0.00102407","0.00243471","0.00236382","-42.6722"
"0.263574","0.32913","7.922","0.00241808","-0.00104989","0.00244748","0.00238703","-43.4183"
"0.267041","0.33331","8.022","0.00243805","-0.00105809","0.0024926","0.00240206","-43.399"
"0.270117","0.334987","8.122","0.00248674","-0.00107248","0.00252892","0.00246482","-43.128"
"0.273535","0.341155","8.222","0.00250412","-0.000999344","0.00254223","0.00248798","-39.908"
"0.276953","0.344841","8.322","0.00253215","-0.00103107","0.0025677","0.00251888","-40.7192"
"0.280615","0.349522","8.422","0.00254054","-0.00101834","0.00258907","0.00253461","-40.0836"
"0.283691","0.352667","8.522","0.00259808","-0.00105101","0.00264195","0.00258956","-40.4533"
"0.287109","0.354536","8.622","0.0026091","-0.00105071","0.00265158","0.00259601","-40.271"
"0.290186","0.359335","8.722","0.00262122","-0.00108377","0.00268191","0.00261522","-41.346"
"0.293652","0.362476","8.822","0.00264352","-0.00109777","0.0026993","0.00264186","-41.5268"
"0.297119","0.36927","8.922","0.00267218","-0.00110942","0.00272124","0.00266189","-41.5174"
"0.300586","0.372963","9.022","0.00270831","-0.0011451","0.00276113","0.00270238","-42.281"
"0.303418","0.374969","9.122","0.00273829","-0.00112914","0.0027879","0.00272212","-41.2352"
"0.306689","0.378441","9.222","0.00280446","-0.00117496","0.0028608","0.00279283","-41.8961"
"0.310059","0.38366","9.322","0.00283193","-0.00116437","0.00288329","0.0028104","-41.1158"
"0.313672","0.385787","9.422","0.00284897","-0.00120344","0.00291617","0.00283398","-42.2412"
"0.316943","0.388496","9.522","0.00288182","-0.00121104","0.00293227","0.00286817","-42.0234"
"0.320557","0.393803","9.622","0.00288182","-0.00121104","0.00293227","0.00286817","-42.0234"
"0.323828","0.397782","9.722","0.00296768","-0.00121344","0.00301551","0.0029466","-40.8885"
"0.327393","0.40089","9.822","0.0029944","-0.00122801","0.00304819","0.00297878","-41.0102"
"0.330566","0.401725","9.922","0.00303209","-0.00127112","0.00308699","0.00301227","-41.9222"
"0.333887","0.407643","10.022","0.00308363","-0.00128073","0.00313655","0.00307649","-41.5332"
"0.336768","0.413115","10.122","0.0031142","-0.0013204","0.00317399","0.00309443","-42.3993"
"0.33999","0.414782","10.222","0.00314214","-0.00134915","0.00318813","0.00313358","-42.9373"
"0.343066","0.416126","10.322","0.00316633","-0.00134871","0.00320429","0.00314692","-42.5954"
"0.346533","0.42023","10.422","0.00319669","-0.0013736","0.0032346","0.00318442","-42.9694"
"0.349902","0.423297","10.522","0.00320833","-0.0013643","0.00325319","0.00320333","-42.5237"
"0.353516","0.428392","10.622","0.00322765","-0.00139592","0.00328022","0.00321618","-43.2488"
"0.356836","0.430138","10.722","0.00326351","-0.00141501","0.00331327","0.00327851","-43.3585"
"0.360693","0.433329","10.822","0.00328481","-0.00147224","0.00334422","0.00329454","-44.8196"
"0.364209","0.440669","10.922","0.00330525","-0.00148389","0.00335647","0.0033183","-44.8949"
"0.367578","0.438956","11.022","0.00332966","-0.00147621","0.00338972","0.00334268","-44.3352"
"0.370215","0.446299","11.122","0.00337289","-0.00145135","0.00341729","0.00336419","-43.0299"
"0.373291","0.447102","11.222","0.00339413","-0.00148552","0.00343908","0.00338589","-43.7673"
"0.376514","0.452944","11.322","0.00343398","-0.00148018","0.00347813","0.00340451","-43.1039"
"0.380029","0.451382","11.422","0.00346044","-0.00140984","0.00350986","0.0034474","-40.7416"
"0.383154","0.458768","11.522","0.0034839","-0.00141975","0.00352192","0.00347132","-40.7517"
"0.386475","0.459884","11.622","0.0035504","-0.00141452","0.00358403","0.0035157","-39.8411"
"0.389893","0.464047","11.722","0.00357404","-0.00141563","0.00361305","0.00353806","-39.6087"
"0.393701","0.465881","11.822","0.00364685","-0.00147049","0.0036979","0.00362783","-40.3222"
"0.397461","0.472534","11.922","0.0036743","-0.0014842","0.00372097","0.0036443","-40.3941"
"0.401123","0.47214","12.022","0.00372956","-0.00148714","0.00377308","0.00366089","-39.8744"
"0.403955","0.47788","12.122","0.00377296","-0.00150275","0.00381568","0.00372716","-39.8295"
"0.407178","0.48021","12.222","0.00378897","-0.00153035","0.00385459","0.00374929","-40.3896"
"0.410205","0.480377","12.322","0.00384405","-0.00151283","0.00388218","0.00378522","-39.3551"
"0.413574","0.485906","12.422","0.00384785","-0.00153137","0.0039107","0.00381698","-39.7981"
"0.41665","0.48646","12.522","0.00391702","-0.00159419","0.00398185","0.00388751","-40.6991"
"0.419971","0.492219","12.622","0.0039328","-0.00158033","0.00398714","0.00390548","-40.1833"
"0.423193","0.495014","12.722","0.00396854","-0.00162224","0.00402778","0.00393032","-40.8775"
"0.426855","0.49846","12.822","0.00398318","-0.0016205","0.00404395","0.00396713","-40.6836"
"0.430566","0.503165","12.922","0.00401359","-0.00165372","0.00410304","0.00399955","-41.203"
"0.43418","0.506873","13.022","0.00405423","-0.00166256","0.00411996","0.00403867","-41.008"
"0.437256","0.511213","13.122","0.00407325","-0.00167421","0.0041296","0.00405225","-41.1026"
"0.440771","0.514293","13.222","0.00413095","-0.00169125","0.00420454","0.00412963","-40.9409"
"0.444043","0.512597","13.322","0.0041429","-0.00170845","0.00422414","0.00415088","-41.238"
"0.447412","0.51732","13.422","0.0041809","-0.00175774","0.00424968","0.00416549","-42.0421"
"0.450195","0.520648","13.522","0.00417895","-0.00174829","0.00425217","0.00418008","-41.8356"
"0.453467","0.523318","13.622","0.00420883","-0.001751","0.00430299","0.00420537","-41.603"
"0.456738","0.525252","13.722","0.00425509","-0.00177842","0.00432845","0.00424254","-41.7951"
"0.460449","0.530446","13.822","0.00426893","-0.00178064","0.0043473","0.00427639","-41.7116"
"0.463818","0.532301","13.922","0.00433103","-0.00180766","0.00440564","0.00432503","-41.7374"
"0.467285","0.535444","14.022","0.00434649","-0.00177596","0.00443855","0.00435721","-40.8596"
"0.47041","0.537542","14.122","0.00440824","-0.00179226","0.00448119","0.00436958","-40.657"
"0.473926","0.542154","14.222","0.00442271","-0.00180261","0.00449842","0.00440527","-40.758"
"0.477295","0.543378","14.322","0.00444635","-0.00176699","0.00458577","0.00442909","-39.7402"
"0.480908","0.546653","14.422","0.00453693","-0.00183129","0.00460025","0.00452126","-40.3641"
"0.483984","0.552676","14.522","0.00453963","-0.00179087","0.00462017","0.00453662","-39.4497"
"0.487402","0.553091","14.622","0.00457738","-0.00176253","0.00465629","0.00457563","-38.5052"
"0.49043","0.555683","14.722","0.00462112","-0.00179489","0.00469057","0.00462809","-38.841"
"0.493896","0.560302","14.822","0.00465675","-0.0018299","0.0047308","0.00464606","-39.2956"
"0.497314","0.559789","14.922","0.00467235","-0.00178961","0.00474729","0.00467763","-38.3021"
"0.500781","0.562839","15.022","0.00468722","-0.00185887","0.0047729","0.00469501","-39.6583"
"0.503613","0.564154","15.122","0.00472672","-0.00182806","0.0047972","0.00473843","-38.675"
"0.506885","0.571165","15.222","0.00474642","-0.00185723","0.00480941","0.00476216","-39.1291"
"0.510205","0.57195","15.322","0.0047665","-0.00185821","0.00484069","0.00479117","-38.9848"
"0.513818","0.577252","15.422","0.00480141","-0.0018686","0.00486807","0.00480555","-38.9177"
"0.517139","0.574978","15.522","0.00483215","-0.00191825","0.00489451","0.00482838","-39.6977"
"0.520801","0.579941","15.622","0.00484673","-0.00188902","0.00491558","0.00486182","-38.9751"
"0.523975","0.580263","15.722","0.00484673","-0.00191865","0.00495757","0.00486182","-39.5865"
"0.527539","0.586799","15.822","0.00493491","-0.00196789","0.00499543","0.00492389","-39.8769"
"0.530762","0.586832","15.922","0.00495041","-0.00195078","0.00502732","0.00494896","-39.4064"
"0.534082","0.59085","16.022","0.00500107","-0.00199764","0.00507214","0.00499743","-39.9443"
"0.536963","0.59105","16.122","0.00503345","-0.00199386","0.00510054","0.00501028","-39.6122"
"0.540137","0.595289","16.222","0.00507931","-0.00199908","0.00514571","0.00504013","-39.3573"
"0.543213","0.59642","16.322","0.00510155","-0.00202689","0.00516811","0.0050718","-39.7309"
"0.54668","0.598035","16.422","0.00513404","-0.00203583","0.00522261","0.00508829","-39.6536"
"0.550049","0.601967","16.522","0.00522312","-0.00205052","0.00526896","0.00516136","-39.2585"
"0.553516","0.604215","16.622","0.00524809","-0.00204558","0.00529866","0.00519469","-38.9776"
"0.556885","0.606132","16.722","0.00529543","-0.0020684","0.00534782","0.00524329","-39.0601"
"0.560742","0.609743","16.822","0.00532265","-0.00207719","0.00537536","0.00527439","-39.0255"
"0.564307","0.613135","16.922","0.00538707","-0.00207782","0.00545838","0.00533592","-38.5705"
"0.567627","0.615615","17.022","0.00540859","-0.00209645","0.00547081","0.00537192","-38.7615"
"0.570264","0.616286","17.122","0.00542183","-0.0021005","0.00549149","0.00537431","-38.7415"
"0.57334","0.618181","17.222","0.00544706","-0.0021201","0.00551962","0.00542531","-38.9219"
"0.576514","0.620414","17.322","0.0054636","-0.0021237","0.00553218","0.00544929","-38.87"
"0.580078","0.6222","17.422","0.00549643","-0.00206186","0.00557812","0.00549361","-37.5127"
"0.583154","0.623213","17.522","0.00552346","-0.00205055","0.00559894","0.00551499","-37.1244"
"0.586475","0.622158","17.622","0.00558081","-0.00205731","0.00564723","0.00554343","-36.864"
"0.589941","0.0534071","17.722","0.00558081","-0.00205731","0.00564723","0.00557642","-36.864"
"0.590137","0.0100546","17.727","0.00558081","-0.00205731","0.00564723","0.00557642","-36.864"