File: Raw_Data./Tensile Nozzle 0.4 mm/45 Degrees/LH0.05_45D_N0.4/5/Test Run 1 02-21-20 12 28 03 PM/DAQ- Crosshead, … - (Timed).txt
File Path: C:\Users\MTS 300\Desktop\robin\eprouvette 45 lh005\test 5\Test Run 1 02-21-20 12 28 03 PM\DAQ- Crosshead, … - (Timed).txt
Test: Tensile test LEI 13
Test Run: Test Run 1
Date: 21/02/2020 12:26:26

Crosshead 	Load 	Time 	Strain 1 	Strain 2
mm	kN	sec	mm/mm	mm/mm
0.00419922	0.00145431	0.115	6.64597e-06	9.89774e-06
0.0101563	0.00947217	0.215	-5.53621e-07	2.35267e-05
0.0174316	0.0155481	0.315	4.02168e-05	-7.57838e-06
0.0254883	0.0246661	0.415	7.41314e-05	-3.7446e-05
0.0336914	0.0308609	0.515	0.000204921	-7.56907e-05
0.0424805	0.0428612	0.615	0.000261498	-0.000150709
0.0509277	0.0475718	0.715	0.000330833	-0.0001527
0.0600098	0.0589784	0.815	0.000397691	-0.000152631
0.0692871	0.0678095	0.915	0.000590553	-0.000199946
0.0780273	0.0772778	1.015	0.000622937	-0.000209222
0.0866211	0.0859501	1.115	0.000669097	-0.000244605
0.0955078	0.0921996	1.215	0.000808119	-0.000310076
0.104736	0.104211	1.315	0.000856943	1.38814e-05
0.113232	0.111866	1.415	0.000988762	-0.000307446
0.121729	0.121445	1.515	0.00107979	-0.00030724
0.130225	0.128309	1.615	0.00131029	-0.000322089
0.139453	0.139533	1.715	0.00113196	-0.000353996
0.148193	0.147249	1.815	0.00121236	-0.000396204
0.156543	0.153721	1.915	0.0013549	-0.000395856
0.164893	0.162901	2.015	0.00142377	-0.000438588
0.173926	0.169249	2.115	0.00163159	-0.000490759
0.182568	0.180457	2.215	0.00170492	-0.000492708
0.190869	0.189201	2.315	0.00187753	-0.000562494
0.199121	0.197845	2.415	0.00193295	-0.000602949
0.207812	0.204755	2.515	0.00196645	-0.000582808
0.216309	0.212573	2.615	0.00208073	-0.000649529
0.224951	0.223389	2.715	0.00214951	-0.000689247
0.23335	0.230035	2.815	0.00224804	-0.000677003
0.241992	0.238023	2.915	0.00229479	-0.000725206
0.250098	0.24499	3.015	0.00240355	-0.000764463
0.258691	0.252944	3.115	0.00245063	-0.000773678
0.267334	0.260638	3.215	0.00251341	-0.000742178
0.275732	0.268957	3.315	0.00261138	-0.000746936
0.283691	0.276302	3.415	0.00265861	-0.000786511
0.291943	0.28403	3.515	0.00282322	-0.000799185
0.300586	0.289922	3.615	0.00287251	-0.000858816
0.309326	0.299853	3.715	0.00300154	-0.000889376
0.317188	0.30765	3.815	0.00312406	-0.000893722
0.325244	0.313484	3.915	0.00319778	-0.000913564
0.333643	0.320957	4.015	0.00323495	-0.000958502
0.342529	0.330927	4.115	0.00334191	-0.00100288
0.350537	0.336321	4.215	0.00350141	-0.00106481
0.358594	0.340919	4.315	0.00356704	-0.00104058
0.366846	0.347717	4.415	0.00369308	-0.00102547
0.375684	0.357167	4.515	0.00374876	-0.00105978
0.384082	0.362737	4.615	0.00385734	-0.00111072
0.392236	0.371216	4.715	0.00371217	-0.00110223
0.400537	0.377838	4.815	0.00376886	-0.00113321
0.409082	0.385505	4.915	0.00395473	-0.00119505
0.417383	0.391731	5.015	0.00400029	-0.00122157
0.42583	0.40184	5.115	0.00413928	-0.00128155
0.434082	0.40898	5.215	0.00418751	-0.00125348
0.442578	0.415639	5.315	0.00432636	-0.00125082
0.450635	0.421086	5.415	0.00444935	-0.00128199
0.459229	0.428176	5.515	0.00451735	-0.00129443
0.467871	0.434432	5.615	0.0046967	-0.00106028
0.476221	0.440979	5.715	0.00476091	-0.00104441
0.484131	0.449339	5.815	0.00487006	-0.00137902
0.492383	0.453143	5.915	0.00489307	-0.00143589
0.501074	0.461201	6.015	0.0049414	-0.00145042
0.509619	0.469449	6.115	0.005048	-0.00147734
0.51748	0.475644	6.215	0.00508034	-0.00147379
0.525635	0.479195	6.315	0.00518674	-0.00150665
0.534131	0.485578	6.415	0.00525559	-0.00158025
0.543018	0.493857	6.515	0.00533054	-0.00161089
0.551025	0.501692	6.615	0.00538048	-0.00160029
0.559082	0.505345	6.715	0.00542911	-0.00160469
0.567334	0.513617	6.815	0.0055897	-0.00167554
0.576123	0.517835	6.915	0.00564485	-0.00165707
0.584473	0.525356	7.015	0.00578606	-0.00168223
0.592578	0.529899	7.115	0.00592945	-0.00174557
0.600879	0.540585	7.215	0.00605618	-0.00177778
0.609375	0.540473	7.315	0.00613561	-0.0017769
0.617725	0.550044	7.415	0.00621591	-0.00177095
0.626221	0.554523	7.515	0.00640427	-0.00180929
0.634473	0.561357	7.615	0.00622031	-0.00180179
0.642871	0.568675	7.715	0.00633627	-0.00179301
0.65083	0.575223	7.815	0.00638941	-0.00184269
0.659277	0.579445	7.915	0.00653624	-0.00197948
0.667773	0.587355	8.015	0.00660879	-0.00199909
0.676074	0.592735	8.115	0.00665117	-0.00202787
0.683984	0.597603	8.215	0.00679511	-0.00204759
0.692236	0.604675	8.315	0.00685503	-0.00206211
0.701025	0.609888	8.415	0.00694466	-0.00208441
0.709717	0.616292	8.515	0.00698786	-0.0020655
0.717578	0.623322	8.615	0.00715905	-0.00210579
0.725684	0.628728	8.715	0.0072251	-0.00216127
0.734131	0.633308	8.815	0.00728812	-0.00207007
0.743018	0.638969	8.915	0.00743742	-0.00208817
0.751074	0.643409	9.015	0.00752177	-0.00214142
0.75918	0.650134	9.115	0.00764731	-0.00213297
0.767529	0.656001	9.215	0.00769404	-0.002201
0.776318	0.663931	9.315	0.00782148	-0.00221979
0.784766	0.669955	9.415	0.00785893	-0.00224446
0.792822	0.675806	9.515	0.0079148	-0.00223833
0.801172	0.680454	9.615	0.00800189	-0.00224235
0.809619	0.68336	9.715	0.00813686	-0.00227102
0.817871	0.687225	9.815	0.00819734	-0.0022758
0.826172	0.693433	9.915	0.0082495	-0.0022574
0.834375	0.699545	10.015	0.00833237	-0.00219206
0.842725	0.706747	10.115	0.00846052	-0.00222513
0.850684	0.710401	10.215	0.00846052	-0.00222513
0.859228	0.719452	10.315	0.00865086	-0.00251436
0.867871	0.725005	10.415	0.00870199	-0.00252035
0.876221	0.728133	10.515	0.00865502	-0.00258347
0.884131	0.73209	10.615	0.00874592	-0.00260517
0.892383	0.740065	10.715	0.00890546	-0.0025765
0.901025	0.744571	10.815	0.00902665	-0.00262917
0.909619	0.747269	10.915	0.00908786	-0.00260706
0.917432	0.754319	11.015	0.00921305	-0.00264761
0.925537	0.759854	11.115	0.00927057	-0.00265008
0.934131	0.76616	11.215	0.0094094	-0.0026842
0.943115	0.768242	11.315	0.00947751	-0.00271329
0.951172	0.774685	11.415	0.00953956	-0.0027417
0.959277	0.777965	11.515	0.00963246	-0.00271391
0.967529	0.785953	11.615	0.00968244	-0.00271677
0.976221	0.791906	11.715	0.00976748	-0.00272364
0.984521	0.793515	11.815	0.00980541	-0.00272945
0.992529	0.8024	11.915	0.00996516	-0.0027344
1.00078	0.805533	12.015	0.00996968	-0.00276186
1.00918	0.811436	12.115	0.0100624	-0.00276588
1.01753	0.816813	12.215	0.0101378	-0.00277073
1.02603	0.819725	12.315	0.0102745	-0.00268859
1.03438	0.825479	12.415	0.0104202	-0.00300044
1.04287	0.830812	12.515	0.0104655	-0.00303749
1.05093	0.835589	12.615	0.0106567	-0.00304204
1.05938	0.839164	12.715	0.0107005	-0.00302759
1.06787	0.845382	12.815	0.0108115	-0.00304593
1.07617	0.851172	12.915	0.0108505	-0.00307281
1.08413	0.856277	13.015	0.0109056	-0.00306497
1.09248	0.859838	13.115	0.0110775	-0.00304779
1.10132	0.865926	13.215	0.0111567	-0.0030755
1.10996	0.871103	13.315	0.0112653	-0.00310682
1.11792	0.875911	13.415	0.011386	-0.00315491
1.12607	0.88165	13.515	0.0112228	-0.00307308
1.13457	0.884777	13.615	0.0112854	-0.00312551
1.14331	0.890658	13.715	0.0113498	-0.00313769
1.15122	0.894516	13.815	0.0115397	-0.0033766
1.15913	0.897683	13.915	0.0116133	-0.00340652
1.16733	0.901182	14.015	0.011744	-0.00345337
1.17607	0.907321	14.115	0.0118724	-0.00345585
1.18447	0.911235	14.215	0.0119503	-0.00345904
1.19253	0.915737	14.315	0.0120847	-0.00348909
1.20083	0.919832	14.415	0.0121224	-0.00350768
1.20923	0.922279	14.515	0.0122799	-0.00378947
1.21753	0.923966	14.615	0.0123025	-0.00378053
1.22593	0.932078	14.715	0.0123904	-0.00345914
1.23413	0.934068	14.815	0.0123998	-0.00341279
1.24248	0.938921	14.915	0.0125629	-0.00342928
1.25054	0.943956	15.015	0.012597	-0.00342464
1.25908	0.946741	15.115	0.0126291	-0.00374397
1.26777	0.953932	15.215	0.0127287	-0.00369086
1.27617	0.958587	15.315	0.012791	-0.00372399
1.28418	0.960804	15.415	0.0128906	-0.00372719
1.29243	0.966	15.515	0.0129423	-0.00370216
1.30107	0.969951	15.615	0.0131457	-0.00372864
1.30962	0.973685	15.715	0.0132086	-0.00377971
1.31748	0.980173	15.815	0.0132822	-0.00376848
1.32554	0.982379	15.915	0.0134283	-0.00379287
1.33403	0.985222	16.015	0.0135817	-0.00374779
1.34297	0.989588	16.115	0.0136951	-0.00379212
1.35098	0.994402	16.215	0.0137687	-0.00382896
1.35908	0.997749	16.315	0.0139768	-0.00386666
1.36738	1.00153	16.415	0.0140367	-0.00394068
1.37607	1.0075	16.515	0.0138066	-0.00392508
1.38442	1.01131	16.615	0.0139089	-0.0039755
1.39243	1.01631	16.715	0.0140633	-0.00401455
1.40063	1.01603	16.815	0.0141726	-0.00432787
1.40903	1.02407	16.915	0.0141726	-0.00430966
1.41743	1.03082	17.015	0.0143367	-0.00424003
1.42593	1.02923	17.115	0.0144053	-0.00424057
1.43423	1.03809	17.215	0.0144815	-0.0042431
1.44272	1.03972	17.315	0.0146789	-0.00424112
1.45088	1.04245	17.415	0.0146789	-0.00422957
1.45938	1.04524	17.515	0.0148758	-0.00426
1.46792	1.05137	17.615	0.0149563	-0.00422107
1.47622	1.05547	17.715	0.015059	-0.00423101
1.48413	1.05529	17.815	0.0151764	-0.00425394
1.49238	1.06342	17.915	0.0152755	-0.00426026
1.50117	1.06311	18.015	0.015366	-0.00425298
1.50981	1.06649	18.115	0.0154192	-0.00427903
1.51772	1.07074	18.215	0.0154838	-0.00434602
1.52578	1.075	18.315	0.0154838	-0.00434602
1.53428	1.07816	18.415	0.0157148	-0.00443614
1.54302	1.08095	18.515	0.0158719	-0.00445436
1.55098	1.08685	18.615	0.0159283	-0.00448707
1.55898	1.08922	18.715	0.0160578	-0.00453819
1.56719	1.09205	18.815	0.0160578	-0.00452019
1.57593	1.09563	18.915	0.0163059	-0.00487408
1.58433	1.09977	19.015	0.0163615	-0.00484567
1.59243	1.1024	19.115	0.0165577	-0.00473405
1.60083	1.10778	19.215	0.0166258	-0.00476865
1.60938	1.10795	19.315	0.0168634	-0.00475776
1.61772	1.11224	19.415	0.0166571	-0.00472563
1.62617	1.11536	19.515	0.016626	-0.00475843
1.63442	1.11814	19.615	0.0168715	-0.00478518
1.64277	1.11928	19.715	0.0170064	-0.0047548
1.65083	1.12212	19.815	0.0170704	-0.00481441
1.65933	1.12595	19.915	0.0171578	-0.00479728
1.66792	1.1278	20.015	0.0172398	-0.0048381
1.67627	1.13168	20.115	0.0174057	-0.0048675
1.68423	1.13465	20.215	0.0174543	-0.0049122
1.69253	1.13439	20.315	0.0175941	-0.00497436
1.70117	1.13718	20.415	0.017748	-0.00498389
1.70977	1.14412	20.515	0.0179681	-0.00506441
1.71758	1.14332	20.615	0.0179681	-0.00506888
1.72568	1.14683	20.715	0.0180479	-0.00509132
1.73423	1.14853	20.815	0.0181682	-0.00521664
1.74316	1.15329	20.915	0.01831	-0.00521664
1.75122	1.15582	21.015	0.0184133	-0.00527675
1.75933	1.1569	21.115	0.0186483	-0.005584
1.76768	1.15979	21.215	0.0187969	-0.00540229
1.77642	1.16091	21.315	0.0187969	-0.00540229
1.78481	1.16192	21.415	0.0188415	-0.00545532
1.79287	1.16356	21.515	0.0190531	-0.00546104
1.80127	1.16429	21.615	0.019108	-0.00546905
1.80972	1.17047	21.715	0.0193685	-0.00547797
1.81807	1.17194	21.815	0.0193685	-0.00547797
1.82651	1.17116	21.915	0.0196224	-0.00557799
1.83477	1.1755	22.015	0.0196224	-0.00557799
1.84312	1.17681	22.115	0.0197177	-0.0056001
1.85107	1.17696	22.215	0.020055	-0.0056612
1.85947	1.17966	22.315	0.0201635	-0.00570336
1.86792	1.18039	22.415	0.0201635	-0.00571138
1.87622	1.18174	22.515	0.0203443	-0.00576232
1.88408	1.18573	22.615	0.0205787	-0.00588716
1.89238	1.18496	22.715	0.0205413	-0.00597516
1.90112	1.18634	22.815	0.0205413	-0.00597516
1.90977	1.18803	22.915	0.0208833	-0.00607187
1.91768	1.19226	23.015	0.0208833	-0.00607072
1.92583	1.19197	23.115	0.0210515	-0.00612602
1.93433	1.19333	23.215	0.0212105	-0.00649385
1.94312	1.19584	23.315	0.0212105	-0.00649385
1.95107	1.19521	23.415	0.021544	-0.00628578
1.95913	1.19814	23.515	0.021544	-0.00628578
1.96738	1.19778	23.615	0.0218798	-0.00632723
1.97617	1.20039	23.715	0.0218798	-0.00632723
1.98467	1.20272	23.815	0.0220564	-0.00638676
1.99272	1.20532	23.915	0.0221649	-0.00639647
2.00103	1.20391	24.015	0.0224561	-0.00652778
2.00947	1.20249	24.115	0.0225652	-0.00651306
2.01777	1.205	24.215	0.0226678	-0.00652746
2.02612	1.20686	24.315	0.0228608	-0.00661463
2.03433	1.20682	24.415	0.0230161	-0.00670874
2.04272	1.20699	24.515	0.02317	-0.00676271
2.05068	1.20852	24.615	0.0232524	-0.0068437
2.05918	1.20787	24.715	0.0233225	-0.00686703
2.06787	1.20848	24.815	0.0235835	-0.00701342
2.07622	1.21078	24.915	0.0236767	-0.00705487
2.08423	1.21219	25.015	0.0238388	-0.00712419
2.09248	1.21035	25.115	0.0239312	-0.00718386
2.10112	1.21005	25.215	0.0242326	-0.0072953
2.10972	1.21266	25.315	0.0243147	-0.00733252
2.11763	1.21105	25.415	0.0244354	-0.00737015
2.12578	1.21182	25.515	0.024784	-0.00731131
2.13433	1.21247	25.615	0.0250858	-0.00736045
2.14321	1.21637	25.715	0.0252942	-0.00742188
2.15122	1.21595	25.815	0.0254078	-0.00747295
2.15928	1.21863	25.915	0.025691	-0.00753061
2.16748	1.2189	26.015	0.0257735	-0.00759518
2.17617	1.21682	26.115	0.0258614	-0.00763376
2.18442	1.21953	26.215	0.0260575	-0.00771162
2.19238	1.21781	26.315	0.0262234	-0.00775974
2.20059	1.21902	26.415	0.0264211	-0.00787242
2.20908	1.22095	26.515	0.0265363	-0.00789531
2.21743	1.22087	26.615	0.0268444	-0.00802945
2.22593	1.22191	26.715	0.0269555	-0.00811134
2.23423	1.2199	26.815	0.0270815	-0.00814331
2.24268	1.21867	26.915	0.0273154	-0.00823702
2.25078	1.21955	27.015	0.0275801	-0.00828386
2.25923	1.21795	27.115	0.0278047	-0.00837264
2.26777	1.22091	27.215	0.0279143	-0.00838678
2.27607	1.21878	27.315	0.0278117	-0.00847404
2.28398	1.21882	27.415	0.0280044	-0.0082627
2.29229	1.21922	27.515	0.0281157	-0.00828925
2.30112	1.22141	27.615	0.0283554	-0.00835436
2.30986	1.22069	27.715	0.0284435	-0.00859188
2.31787	1.2213	27.815	0.028768	-0.00875131
2.32607	1.22182	27.915	0.0288894	-0.00873646
2.33462	1.21934	28.015	0.0291099	-0.00882443
2.34336	1.21793	28.115	0.0293629	-0.00892771
2.35132	1.22017	28.215	0.0294747	-0.00895717
2.35933	1.2186	28.315	0.0297545	-0.00905486
2.36753	1.21512	28.415	0.0299203	-0.00910771
2.37622	1.21956	28.515	0.0302731	-0.00919944
2.38452	1.21715	28.615	0.0302731	-0.00919944
2.39258	1.21764	28.715	0.0307385	-0.00932649
2.40088	1.21611	28.815	0.0308574	-0.00937577
2.40933	1.21626	28.915	0.0310837	-0.00946061
2.41763	1.21698	29.015	0.031324	-0.00951125
2.42598	1.21673	29.115	0.0314398	-0.00951183
2.43413	1.21609	29.215	0.0317841	-0.009523
2.44253	1.21504	29.315	0.0319193	-0.00953938
2.45054	1.21664	29.415	0.0321699	-0.00958991
2.45913	1.21531	29.515	0.0323065	-0.0096572
2.46782	1.21683	29.615	0.0327076	-0.00976381
2.47622	1.21184	29.715	0.0328489	-0.00980093
2.48423	1.21298	29.815	0.0331253	-0.0100025
2.49248	1.21382	29.915	0.0334042	-0.0101077
2.50117	1.21176	30.015	0.0336242	-0.0101452
2.50962	1.2106	30.115	0.0337213	-0.0102345
2.51738	1.21105	30.215	0.0338573	-0.0102345
2.52539	1.2099	30.315	0.0339739	-0.0103131
2.53389	1.20954	30.415	0.0343049	-0.0104162
2.54282	1.21093	30.515	0.034561	-0.0104468
2.55088	1.21061	30.615	0.0346897	-0.0106121
2.55894	1.20735	30.715	0.034967	-0.0106121
2.56719	1.20743	30.815	0.0352581	-0.0110369
2.57598	1.20825	30.915	0.0353936	-0.0110651
2.58428	1.20825	31.015	0.0355542	-0.0111643
2.59238	1.20547	31.115	0.0359858	-0.011283
2.60068	1.20532	31.215	0.036094	-0.0113463
2.60918	1.20106	31.315	0.036372	-0.011405
2.61753	1.20321	31.415	0.0366216	-0.01156
2.62607	1.20484	31.515	0.0368525	-0.0116134
2.63442	1.20348	31.615	0.036966	-0.0117422
2.64287	1.20051	31.715	0.0371052	-0.0118152
2.65093	1.20025	31.815	0.0376912	-0.0117943
2.65942	1.2006	31.915	0.0376912	-0.0117943
2.66797	1.20405	32.015	0.0379767	-0.0118942
2.67622	1.20035	32.115	0.038151	-0.0119384
2.68418	1.19952	32.215	0.038577	-0.0120486
2.69243	1.19964	32.315	0.0388932	-0.0122115
2.70112	1.1975	32.415	0.0388932	-0.0122115
2.70967	1.19566	32.515	0.0394695	-0.0124242
2.71758	1.19771	32.615	0.0394695	-0.0124242
2.72563	1.19278	32.715	0.0395943	-0.0124971
2.73413	1.19265	32.815	0.0400161	-0.0126895
2.74297	1.19671	32.915	0.0402956	-0.0128015
2.75098	1.19191	33.015	0.0404343	-0.0128739
2.75903	1.19004	33.115	0.0405711	-0.0129646
2.76733	1.19258	33.215	0.0408757	-0.0130996
2.77612	1.18888	33.315	0.0411851	-0.013235
2.78452	1.18959	33.415	0.0416663	-0.0134256
2.79268	1.18942	33.515	0.0418234	-0.0134545
2.80093	1.18673	33.615	0.0421639	-0.0132914
2.80938	1.18824	33.715	0.042309	-0.0134138
2.81772	1.18938	33.815	0.042432	-0.0134138
2.82617	1.18415	33.915	0.0428793	-0.0134948
2.83447	1.18584	34.015	0.0430046	-0.0136313
2.84287	1.18635	34.115	0.043457	-0.0137636
2.85088	1.18389	34.215	0.0435955	-0.0138202
2.85937	1.18556	34.315	0.043699	-0.0140485
2.86797	1.18202	34.415	0.043873	-0.0140485
2.87632	1.18039	34.515	0.0442445	-0.0141395
2.88423	1.1826	34.615	0.0443901	-0.0142425
2.89248	1.17959	34.715	0.044606	-0.0143535
2.90112	1.17912	34.815	0.0450091	-0.0145612
2.90967	1.18144	34.915	0.0451476	-0.0146528
2.91753	1.17911	35.015	0.0454354	-0.0148441
2.92563	1.17737	35.115	0.0459122	-0.0150909
2.93418	1.17749	35.215	0.0459122	-0.0150909
2.94302	1.17502	35.315	0.0463362	-0.0153777
2.95107	1.17374	35.415	0.0463362	-0.0153777
2.95918	1.17498	35.515	0.0467983	-0.0156129
2.96748	1.17728	35.615	0.0470793	-0.0153708
2.97622	1.17487	35.715	0.0472945	-0.0154309
2.98457	1.17574	35.815	0.0476233	-0.0155087
2.99263	1.17226	35.915	0.0479703	-0.0156696
3.00093	1.17322	36.015	0.0482982	-0.0157362
3.00937	1.16955	36.115	0.0482982	-0.0158248
3.01777	1.16942	36.215	0.0487188	-0.0160501
3.02617	1.16956	36.315	0.0490053	-0.016149
3.03437	1.16891	36.415	0.0493409	-0.0163407
3.04277	1.16903	36.515	0.0494844	-0.0163999
3.05078	1.16648	36.615	0.0496438	-0.016403
3.05923	1.16813	36.715	0.0499745	-0.0166693
3.06772	1.16732	36.815	0.0499745	-0.0166693
3.07598	1.16557	36.915	0.0506381	-0.016975
3.08389	1.16394	37.015	0.0508299	-0.0170341
3.09224	1.16454	37.115	0.0513126	-0.0171957
3.10103	1.16176	37.215	0.0513126	-0.0172441
3.10972	1.16328	37.315	0.0517826	-0.0173109
3.11768	1.16285	37.415	0.0519314	-0.0177378
3.12578	1.16358	37.515	0.0522416	-0.0177378
3.13428	1.15755	37.615	0.0524261	-0.0176702
3.14312	1.16225	37.715	0.0527549	-0.0177016
3.15122	1.16042	37.815	0.0532226	-0.0178536
3.15928	1.15843	37.915	0.0533818	-0.0180466
3.16763	1.15518	38.015	0.0533818	-0.0180466
3.17642	1.15745	38.115	0.0538944	-0.0182476
3.18486	1.1519	38.215	0.0543027	-0.0184551
3.19297	1.15559	38.315	0.0548006	-0.0184742
3.20127	1.15086	38.415	0.0549746	-0.0187694
3.20967	1.15051	38.515	0.0552827	-0.0189108
3.21792	1.15018	38.615	0.0552827	-0.0189108
3.22627	1.15115	38.715	0.055431	-0.019125
3.23442	1.14849	38.815	0.0558015	-0.0191656
3.24277	1.14478	38.915	0.0561067	-0.0193185
3.25083	1.14433	39.015	0.0566722	-0.0195933
3.25937	1.14554	39.115	0.0568609	-0.0195933
3.26797	1.14122	39.215	0.057252	-0.019955
3.27632	1.14172	39.315	0.0574447	-0.0200341
3.28428	1.13739	39.415	0.0578792	-0.0200685
3.29253	1.13543	39.515	0.0584407	-0.0203655
3.30117	1.13036	39.615	0.0584407	-0.0203655
3.30977	1.12388	39.715	0.0590752	-0.0206397
3.31592	-0.0953843	39.793	0.0593945	-0.0216152