File: Raw_Data./Tensile Nozzle 0.4 mm/0 Degrees/LH0.1_0D_N0.4/Test Run 1 05-19-21 11 17 13 AM/DAQ- Crosshead, … - (Timed).csv
"File Path: G:\TT\3\Test Run 1 05-19-21 11 17 13 AM\DAQ- Crosshead, … - (Timed).csv   "
"Test: Robin_Tension_4_DIC_Signals 3"
"Test Run: Test Run 1"
"Date: 18/05/2021 13:47:56"
""
""
"Crosshead ","Load ","Time ","Strain 1 ","Strain 2 ","Strain 3 ","Strain 4 ","PoissonRatio "
"mm","kN","sec","mm/mm","mm/mm","mm/mm","mm/mm","%"
"0.000341797","-0.00638673","0.113","6.14764e-06","4.8069e-05","1.87407e-05","3.09491e-05","781.91"
"0.00380859","-0.00177799","0.313","3.31009e-05","5.35646e-05","2.23003e-05","4.41701e-05","161.822"
"0.00976562","0.00355603","0.513","3.60205e-05","2.4208e-05","4.35693e-05","-1.95373e-05","67.2062"
"0.0166016","0.0115315","0.713","-3.10539e-06","1.56355e-05","-1.43705e-05","-2.99066e-05","-503.496"
"0.0244629","0.0182869","0.913","4.39841e-05","5.64105e-05","7.37223e-06","-7.69349e-05","128.252"
"0.0317871","0.0252403","1.113","-1.07022e-07","7.13267e-05","1.91533e-05","-0.00011441","-66646.8"
"0.0391113","0.033685","1.313","2.64577e-05","8.86982e-05","5.57782e-06","-0.000101771","335.245"
"0.0458008","0.0391586","1.513","4.47824e-05","7.08248e-05","1.28633e-05","-0.000146542","158.153"
"0.0531738","0.0449834","1.713","4.68557e-05","6.70712e-05","-1.43545e-07","-0.00014775","143.144"
"0.060498","0.050772","1.913","7.77195e-05","6.20454e-05","5.16722e-05","-0.000195137","79.8325"
"0.0675293","0.0589814","2.113","9.90448e-05","0.000127055","9.5061e-05","-0.000256256","128.28"
"0.0748047","0.0675938","2.313","0.000105075","0.000171654","0.00015111","-0.000241004","163.363"
"0.0814941","0.0726193","2.513","0.000205306","0.000262958","0.000255178","-0.000136606","128.081"
"0.0884277","0.0792428","2.713","0.000325438","0.000325732","0.000321857","-0.000187334","100.09"
"0.0952637","0.086841","2.913","1.84765e-05","2.2929e-05","-6.30921e-06","-0.000468599","124.098"
"0.101904","0.0922418","3.113","6.40918e-05","8.09812e-05","1.01094e-05","-0.000480793","126.352"
"0.109131","0.102006","3.313","3.1684e-05","2.78538e-05","-1.94837e-05","-0.000596581","87.9112"
"0.11626","0.108452","3.513","5.90998e-05","5.00285e-05","1.35221e-05","-0.00061432","84.6509"
"0.123193","0.116143","3.713","9.14691e-05","8.30853e-05","3.85095e-05","-0.000642033","90.8343"
"0.12959","0.122018","3.913","7.65857e-05","0.000105749","8.26321e-05","-0.000714467","138.079"
"0.136035","0.127304","4.113","0.000145668","0.000123949","6.44921e-05","-0.000736393","85.0901"
"0.142969","0.132869","4.313","0.000142659","0.000171479","0.00010581","-0.000806718","120.202"
"0.150049","0.142184","4.513","0.000157578","0.000213307","0.000161387","-0.000823107","135.366"
"0.15752","0.147315","4.713","0.000187647","0.00022778","0.000168335","-0.000897899","121.387"
"0.163574","0.151065","4.913","0.000226691","0.000278045","0.000190332","-0.000849472","122.654"
"0.169922","0.160798","5.113","0.000446523","0.000423575","0.000422558","-0.000804449","94.8607"
"0.176514","0.165879","5.313","0.000473078","0.00049434","0.00048466","-0.00076928","104.494"
"0.183301","0.172487","5.513","0.000747037","0.000736254","0.000718703","-0.000578317","98.5566"
"0.190967","0.179284","5.713","0.000684367","0.000765381","0.000781005","-0.000523444","111.838"
"0.197412","0.185243","5.913","0.000675925","0.000770234","0.000746186","-0.000616343","113.953"
"0.203564","0.189385","6.113","0.000686167","0.000783682","0.000772195","-0.000641868","114.212"
"0.209961","0.198353","6.313","0.000732307","0.000731887","0.000717624","-0.00082974","99.9426"
"0.216455","0.204023","6.513","0.000575352","0.000641471","0.000597766","-0.00102682","111.492"
"0.223779","0.212183","6.713","0.000580224","0.000606223","0.000565507","-0.00108362","104.481"
"0.230518","0.215659","6.913","0.000598202","0.000648147","0.000592091","-0.00118918","108.349"
"0.237207","0.222499","7.113","0.000639998","0.000676743","0.000639574","-0.00124727","105.741"
"0.243408","0.231771","7.313","0.00065092","0.000708548","0.000661941","-0.00128362","108.853"
"0.249805","0.235299","7.513","0.000664494","0.000713606","0.000662113","-0.00132528","107.391"
"0.256885","0.241224","7.713","0.000869674","0.000879001","0.000848915","-0.0012594","101.072"
"0.263428","0.248521","7.913","0.000993132","0.00100933","0.000961737","-0.00109528","101.631"
"0.270313","0.257214","8.113","0.000993652","0.00106121","0.00102243","-0.00105971","106.799"
"0.277051","0.262572","8.313","0.00118613","0.00120394","0.00120232","-0.000959073","101.502"
"0.283447","0.268361","8.513","0.0013081","0.00131228","0.00134544","-0.00103027","100.32"
"0.290381","0.273156","8.713","0.00136089","0.00138082","0.0013958","-0.00104853","101.464"
"0.29668","0.279963","8.913","0.00133715","0.00133401","0.00133461","-0.0011702","99.7652"
"0.30332","0.28514","9.113","0.00111747","0.00116757","0.00115882","-0.00135172","104.483"
"0.310254","0.29171","9.313","0.00122275","0.00122556","0.00122703","-0.00151701","100.23"
"0.31709","0.298999","9.513","0.00118913","0.00122665","0.00121112","-0.00149379","103.155"
"0.323828","0.30344","9.713","0.001209","0.00124521","0.00122681","-0.00136339","102.995"
"0.330029","0.312686","9.913","0.00130594","0.00133662","0.00132203","-0.00152067","102.349"
"0.336328","0.319593","10.113","0.00142685","0.00139535","0.00141164","-0.00150807","97.7923"
"0.343164","0.325863","10.313","0.00148073","0.00146238","0.0014421","-0.00154638","98.7607"
"0.350146","0.330265","10.513","0.00153774","0.00151163","0.00151812","-0.00162595","98.3021"
"0.35752","0.336621","10.713","0.00155455","0.00159855","0.00159603","-0.00163117","102.83"
"0.363477","0.346375","10.913","0.0017074","0.00169058","0.00167648","-0.00167375","99.0149"
"0.369775","0.350054","11.113","0.00174786","0.00175994","0.00175637","-0.00171135","100.691"
"0.376367","0.356291","11.313","0.00180911","0.00181447","0.00184275","-0.00173259","100.296"
"0.383154","0.360415","11.513","0.00179272","0.00184828","0.001855","-0.00173017","103.099"
"0.39082","0.367257","11.713","0.00178494","0.00180673","0.00186385","-0.00175048","101.221"
"0.397266","0.373012","11.913","0.00178719","0.00187068","0.00185555","-0.00178605","104.672"
"0.403516","0.37737","12.113","0.00180613","0.0018297","0.00189047","-0.00180782","101.305"
"0.409961","0.384261","12.313","0.00181036","0.00187057","0.00190154","-0.00180988","103.326"
"0.416504","0.38831","12.513","0.00188177","0.00190758","0.00192685","-0.00174959","101.372"
"0.423877","0.394484","12.713","0.00193643","0.00195772","0.00196346","-0.00189788","101.099"
"0.430518","0.399413","12.913","0.00203756","0.00205267","0.00205271","-0.00187852","100.742"
"0.437305","0.409973","13.113","0.002203","0.00224382","0.00221661","-0.00189234","101.853"
"0.443457","0.413779","13.313","0.00229945","0.00230334","0.00229999","-0.00198944","100.169"
"0.450049","0.417106","13.513","0.00236992","0.00237308","0.00239003","-0.00198822","100.133"
"0.457031","0.425713","13.713","0.00239076","0.00243277","0.00244682","-0.00198675","101.757"
"0.463672","0.429762","13.913","0.00245791","0.00251194","0.00255059","-0.00203157","102.198"
"0.470605","0.434219","14.113","0.00247946","0.00253012","0.0025672","-0.0020479","102.043"
"0.477295","0.442954","14.313","0.00249213","0.00252627","0.00257096","-0.00208953","101.37"
"0.483691","0.444783","14.513","0.00251341","0.00256218","0.00261796","-0.00211197","101.94"
"0.490576","0.450617","14.713","0.00252506","0.00254829","0.00261231","-0.00211707","100.92"
"0.496875","0.455791","14.913","0.00253544","0.002585","0.00264219","-0.00213745","101.955"
"0.503467","0.464781","15.113","0.00262038","0.00264238","0.00266877","-0.00207281","100.84"
"0.5104","0.467143","15.313","0.00264002","0.00270491","0.00270534","-0.00208814","102.458"
"0.517236","0.473266","15.513","0.0027618","0.0027698","0.00280476","-0.00222778","100.29"
"0.524023","0.47747","15.713","0.00286118","0.00290654","0.00292223","-0.00230959","101.585"
"0.530225","0.485518","15.913","0.00293559","0.00299353","0.0029929","-0.00227477","101.974"
"0.536475","0.486917","16.113","0.00304577","0.00311225","0.00310956","-0.00230691","102.183"
"0.543311","0.493563","16.313","0.00308491","0.00312259","0.00318","-0.00235006","101.221"
"0.550244","0.502084","16.513","0.00312801","0.00320317","0.00322743","-0.00237572","102.403"
"0.557617","0.506323","16.713","0.00321508","0.00324947","0.00327908","-0.0024065","101.07"
"0.563574","0.510025","16.913","0.00321917","0.00332472","0.00336072","-0.00240237","103.279"
"0.569873","0.514363","17.113","0.00325912","0.00328895","0.00336009","-0.00245062","100.915"
"0.576465","0.521866","17.313","0.00329569","0.00333115","0.00340714","-0.00246158","101.076"
"0.583252","0.525175","17.513","0.00335139","0.00335624","0.00344861","-0.00248112","100.145"
"0.590918","0.531456","17.713","0.00338557","0.00337802","0.00346766","-0.00247146","99.777"
"0.597266","0.535619","17.913","0.00340181","0.00341216","0.00354649","-0.00250307","100.304"
"0.603564","0.54137","18.113","0.00350258","0.00346302","0.00359055","-0.0024465","98.8705"
"0.609961","0.544369","18.313","0.00356554","0.00357192","0.00369123","-0.00259512","100.179"
"0.616504","0.550583","18.513","0.00361097","0.00364286","0.00374263","-0.00260727","100.883"
"0.623975","0.559465","18.713","0.00368331","0.00373556","0.00379642","-0.00264218","101.419"
"0.630713","0.56347","18.913","0.00374518","0.00378391","0.00385782","-0.00267559","101.034"
"0.6375","0.565367","19.113","0.00377426","0.00386959","0.00391682","-0.00273263","102.526"
"0.643652","0.567571","19.313","0.00384223","0.00393094","0.00396272","-0.00274462","102.309"
"0.650195","0.574152","19.513","0.00391372","0.00396424","0.00401348","-0.0027601","101.291"
"0.657178","0.57881","19.713","0.00397973","0.0040144","0.00409031","-0.00277673","100.871"
"0.663672","0.585225","19.913","0.00402082","0.004092","0.00422745","-0.00270286","101.77"
"0.670557","0.589702","20.113","0.00406128","0.00412934","0.00426071","-0.00274161","101.676"
"0.677197","0.594455","20.313","0.00408715","0.00417568","0.00429525","-0.00278113","102.166"
"0.683545","0.598301","20.513","0.0041452","0.00425719","0.00442019","-0.00272493","102.702"
"0.69043","0.603131","20.713","0.00420085","0.00428441","0.00443921","-0.00271035","101.989"
"0.69668","0.606948","20.913","0.00423855","0.00435635","0.00449941","-0.00288304","102.779"
"0.703271","0.614931","21.113","0.00430456","0.00441003","0.00455348","-0.00288956","102.45"
"0.710156","0.61734","21.313","0.0044192","0.0043577","0.00445274","-0.00314504","98.6083"
"0.716992","0.621575","21.513","0.00448396","0.0044664","0.00455387","-0.00311972","99.6084"
"0.72373","0.625571","21.713","0.00453791","0.0044973","0.00464901","-0.00304814","99.1051"
"0.730029","0.628873","21.913","0.00457708","0.00454486","0.00469574","-0.00301828","99.2961"
"0.736328","0.637572","22.113","0.0045985","0.00461156","0.00473748","-0.00320319","100.284"
"0.743213","0.640765","22.313","0.00460926","0.00464525","0.00477482","-0.00322763","100.781"
"0.750195","0.646634","22.513","0.0046318","0.00471117","0.00483683","-0.00325862","101.714"
"0.757568","0.650441","22.713","0.00468069","0.00475695","0.00485597","-0.00328617","101.629"
"0.763525","0.653023","22.913","0.00472616","0.00482091","0.00488808","-0.00331951","102.005"
"0.769824","0.658434","23.113","0.00481985","0.00487588","0.00494479","-0.00337286","101.162"
"0.776465","0.662073","23.313","0.00486774","0.00488621","0.00498151","-0.00337641","100.379"
"0.783301","0.669145","23.513","0.00494782","0.00493952","0.00503221","-0.00339034","99.8322"
"0.790967","0.675386","23.713","0.00507005","0.00502122","0.00515098","-0.00340772","99.0369"
"0.797363","0.679475","23.913","0.00519529","0.00511104","0.00525113","-0.00340966","98.3783"
"0.803613","0.684428","24.113","0.00527588","0.00520608","0.00536098","-0.00344998","98.677"
"0.810107","0.684229","24.313","0.00524453","0.00527225","0.00542345","-0.00342144","100.529"
"0.816602","0.689461","24.513","0.00528917","0.00532778","0.00554411","-0.00340842","100.73"
"0.824121","0.694685","24.713","0.00532614","0.00539223","0.00556337","-0.00341075","101.241"
"0.830762","0.699844","24.913","0.00537454","0.00548512","0.00566004","-0.00355619","102.057"
"0.8375","0.703881","25.113","0.00537986","0.00550643","0.00566666","-0.00356847","102.353"
"0.843652","0.708944","25.313","0.00543403","0.00549169","0.00567973","-0.00356335","101.061"
"0.850049","0.712804","25.513","0.00545739","0.00555985","0.00570701","-0.00359948","101.877"
"0.85708","0.718028","25.713","0.00548046","0.00557798","0.00570785","-0.0036207","101.779"
"0.863574","0.724969","25.913","0.00549818","0.00559205","0.00575529","-0.00368278","101.707"
"0.870459","0.724951","26.113","0.00559559","0.00565067","0.00580732","-0.00370421","100.984"
"0.877197","0.729222","26.313","0.00569686","0.00576373","0.00590018","-0.00370938","101.174"
"0.883496","0.735247","26.513","0.00580566","0.00590209","0.00598353","-0.00372506","101.661"
"0.890478","0.740185","26.713","0.00593348","0.00595455","0.00613029","-0.0037026","100.355"
"0.89668","0.741983","26.913","0.00601742","0.00605566","0.00622433","-0.00376305","100.635"
"0.90332","0.744116","27.113","0.00608389","0.0061212","0.00629179","-0.00374406","100.613"
"0.910303","0.751352","27.313","0.00610835","0.00617647","0.00637013","-0.00374062","101.115"
"0.917187","0.75601","27.513","0.00615066","0.00627373","0.00643988","-0.00374928","102.001"
"0.923975","0.758541","27.713","0.00615833","0.00629641","0.00649965","-0.00383802","102.242"
"0.930029","0.763762","27.913","0.00621649","0.0063116","0.00650249","-0.00383385","101.53"
"0.936279","0.763389","28.113","0.00622483","0.00631922","0.00657023","-0.00389631","101.516"
"0.943018","0.7707","28.313","0.00621164","0.00634136","0.00655514","-0.00392306","102.088"
"0.949951","0.776755","28.513","0.00626213","0.00633231","0.00655107","-0.00394425","101.121"
"0.957324","0.781687","28.713","0.00632152","0.0063918","0.00663347","-0.00396157","101.112"
"0.963428","0.782673","28.913","0.00639564","0.00646306","0.00668543","-0.00397557","101.054"
"0.969775","0.786309","29.113","0.00647054","0.00653609","0.00676836","-0.00398619","101.013"
"0.976367","0.790875","29.313","0.00661619","0.00667392","0.00687336","-0.00399978","100.873"
"0.983252","0.795636","29.513","0.00670104","0.0067273","0.00694932","-0.004091","100.392"
"0.990869","0.801053","29.713","0.00681732","0.0068774","0.00708823","-0.00408367","100.881"
"0.997363","0.808001","29.913","0.00692466","0.00697415","0.00717603","-0.00410216","100.715"
"1.00356","0.810084","30.113","0.00693267","0.00701249","0.00722965","-0.00402603","101.151"
"1.00996","0.813749","30.313","0.00696256","0.00704781","0.00726649","-0.00405224","101.224"
"1.0165","0.816065","30.513","0.00700225","0.00707931","0.00733106","-0.0041554","101.101"
"1.02388","0.81962","30.713","0.00702018","0.00711629","0.00737201","-0.00418553","101.369"
"1.03052","0.826889","30.913","0.00704971","0.00714432","0.00736947","-0.00417868","101.342"
"1.03716","0.828372","31.113","0.00711319","0.00715562","0.00741872","-0.00421411","100.596"
"1.04336","0.830479","31.313","0.00713514","0.00719164","0.00749168","-0.00428379","100.792"
"1.04985","0.83393","31.513","0.00717732","0.0072549","0.00755406","-0.00429993","101.081"
"1.05693","0.839802","31.713","0.00726669","0.00729795","0.00758973","-0.00435146","100.43"
"1.06353","0.845952","31.913","0.00733451","0.00739963","0.00767662","-0.00433561","100.888"
"1.07046","0.849641","32.113","0.0074216","0.00746821","0.00773953","-0.00437054","100.628"
"1.07715","0.851109","32.313","0.00751027","0.00757864","0.00781554","-0.00439617","100.91"
"1.08354","0.85525","32.513","0.00759314","0.00768093","0.00787513","-0.00439721","101.156"
"1.09048","0.862184","32.713","0.00763278","0.00774928","0.00793993","-0.00439161","101.526"
"1.09673","0.863435","32.913","0.00773543","0.00777993","0.00800505","-0.00444138","100.575"
"1.10342","0.868714","33.113","0.00776648","0.00781532","0.0080692","-0.0044201","100.629"
"1.11035","0.87187","33.313","0.0078123","0.00789465","0.00813927","-0.00454163","101.054"
"1.11724","0.876934","33.513","0.00783587","0.00792055","0.00817419","-0.00454114","101.081"
"1.12407","0.882117","33.713","0.00788476","0.00796081","0.00821782","-0.00455011","100.965"
"1.13027","0.883081","33.913","0.00795058","0.0080192","0.0083089","-0.00456072","100.863"
"1.13667","0.887668","34.113","0.00802939","0.00804693","0.00838863","-0.0045854","100.218"
"1.14351","0.892223","34.313","0.00805855","0.00810061","0.00846615","-0.00463055","100.522"
"1.15063","0.894628","34.513","0.0081404","0.00817762","0.0085412","-0.0046293","100.457"
"1.15801","0.901201","34.713","0.00820081","0.00825761","0.00856327","-0.0046289","100.693"
"1.16396","0.902948","34.913","0.00825579","0.0083333","0.00862478","-0.00465556","100.939"
"1.17036","0.910664","35.113","0.00829794","0.00840129","0.00866832","-0.00471015","101.245"
"1.17676","0.909927","35.313","0.00833261","0.00843906","0.00869921","-0.00467795","101.278"
"1.18359","0.915245","35.513","0.00840045","0.00845581","0.0087663","-0.00467575","100.659"
"1.19106","0.918764","35.713","0.00844774","0.00854333","0.00875878","-0.00470389","101.132"
"1.19741","0.924782","35.913","0.00854228","0.00860015","0.0088549","-0.00480633","100.677"
"1.20352","0.928495","36.113","0.00858706","0.00864485","0.00894193","-0.00480147","100.673"
"1.20991","0.932039","36.313","0.00870391","0.00868248","0.00901695","-0.00485176","99.7538"
"1.21641","0.932597","36.513","0.00877184","0.00878116","0.00910241","-0.00480199","100.106"
"1.22373","0.93945","36.713","0.00885145","0.00885258","0.00920233","-0.0048313","100.013"
"1.23042","0.943045","36.913","0.00890806","0.0088969","0.00933886","-0.00489571","99.8747"
"1.23716","0.94454","37.113","0.00893692","0.00899694","0.00935348","-0.00489517","100.672"
"1.24341","0.94635","37.313","0.00895553","0.00903807","0.00940728","-0.00493325","100.922"
"1.2499","0.95202","37.513","0.00898791","0.00904478","0.00943691","-0.00493827","100.633"
"1.25698","0.955772","37.713","0.00898038","0.00910622","0.00944412","-0.00497189","101.401"
"1.26353","0.958245","37.913","0.0090368","0.00915525","0.00946485","-0.00497363","101.311"
"1.27036","0.967332","38.113","0.00907359","0.00917918","0.009514","-0.00500033","101.164"
"1.27705","0.966855","38.313","0.00912177","0.00923777","0.00956101","-0.00499568","101.272"
"1.28335","0.972736","38.513","0.00921431","0.0092561","0.00955459","-0.00502024","100.454"
"1.29033","0.976727","38.713","0.0092881","0.00932779","0.00963295","-0.00507241","100.427"
"1.29663","0.978321","38.913","0.00941793","0.00939483","0.00972131","-0.00504929","99.7547"
"1.30332","0.98197","39.113","0.00954619","0.009481","0.0098659","-0.0051208","99.3171"
"1.31035","0.983994","39.313","0.00963181","0.00958005","0.00996074","-0.005104","99.4626"
"1.31724","0.987918","39.513","0.00973277","0.00971293","0.0100826","-0.00513519","99.7962"
"1.32407","0.993779","39.713","0.00974694","0.00977156","0.0101818","-0.00516052","100.253"
"1.33022","0.99695","39.913","0.00978899","0.00983236","0.0102493","-0.00518961","100.443"
"1.33667","0.999634","40.113","0.00981237","0.00987351","0.0102726","-0.00519562","100.623"
"1.34346","1.00188","40.313","0.00980849","0.00991679","0.0102892","-0.00528704","101.104"
"1.35044","1.0098","40.513","0.00981052","0.00992021","0.0102979","-0.0052611","101.118"
"1.35776","1.004","40.713","0.00977219","0.00979779","0.0103551","-0.00515452","100.262"
"1.36362","1.00725","40.913","0.00979124","0.009892","0.010473","-0.00527923","101.029"
"1.36992","1.00991","41.113","0.00985113","0.00990386","0.0105167","-0.00521465","100.535"
"1.37637","1.01107","41.313","0.00997011","0.00996144","0.0105864","-0.00530523","99.913"
"1.3833","1.0171","41.513","0.0100576","0.0100273","0.010684","-0.00536665","99.6987"
"1.39092","1.0204","41.713","0.01016","0.0101421","0.0107074","-0.0054375","99.8238"
"1.39736","1.02322","41.913","0.0102175","0.0102571","0.0108089","-0.00541309","100.388"
"1.40356","1.02579","42.113","0.0102086","0.0103628","0.0108979","-0.00548535","101.51"
"1.40996","1.02854","42.313","0.0102517","0.010449","0.0109721","-0.00555683","101.925"
"1.4165","1.03258","42.513","0.010236","0.0105069","0.0110174","-0.00558424","102.647"
"1.42388","1.03618","42.713","0.0102336","0.0105238","0.0110108","-0.00558921","102.836"
"1.43057","1.03897","42.913","0.0102464","0.0105345","0.011088","-0.00559706","102.812"
"1.4373","1.04024","43.113","0.0102659","0.0105656","0.0110879","-0.00560217","102.919"
"1.44346","1.04286","43.313","0.0102908","0.010587","0.0111375","-0.00558826","102.878"
"1.44995","1.04564","43.513","0.0103405","0.0105901","0.0111784","-0.0056643","102.414"
"1.45698","1.05221","43.713","0.0103966","0.010627","0.0112402","-0.00556794","102.216"
"1.46348","1.0555","43.913","0.0104832","0.0106942","0.0112543","-0.005626","102.013"
"1.47036","1.05647","44.113","0.0105659","0.0107544","0.011362","-0.00564122","101.784"
"1.4771","1.06141","44.313","0.0106742","0.0108533","0.0114319","-0.00570885","101.678"
"1.4835","1.06351","44.513","0.0107369","0.0109568","0.0114966","-0.00575328","102.048"
"1.49043","1.06617","44.713","0.0108483","0.0110809","0.0116223","-0.00571327","102.144"
"1.49673","1.07025","44.913","0.0108793","0.0111522","0.0116785","-0.00576667","102.508"
"1.50342","1.07323","45.113","0.0109257","0.01119","0.0117299","-0.00578785","102.419"
"1.51035","1.07402","45.313","0.0109565","0.0111977","0.011794","-0.00582819","102.201"
"1.51719","1.07999","45.513","0.0109299","0.011295","0.0118325","-0.00576281","103.34"
"1.52393","1.08293","45.713","0.0109899","0.0112998","0.0118808","-0.00579363","102.82"
"1.53008","1.0877","45.913","0.010983","0.0113043","0.0119386","-0.00578792","102.925"
"1.53643","1.08849","46.113","0.011055","0.0113421","0.0119963","-0.00584394","102.597"
"1.54321","1.091","46.313","0.0110755","0.0113704","0.0120371","-0.00584873","102.663"
"1.55015","1.09455","46.513","0.0111784","0.0113913","0.0121288","-0.0059021","101.905"
"1.55752","1.09729","46.713","0.011223","0.0114796","0.0121738","-0.00588653","102.286"
"1.56348","1.09974","46.913","0.0113329","0.0115857","0.012232","-0.00589581","102.231"
"1.56982","1.10513","47.113","0.0113975","0.0116632","0.0122769","-0.00591503","102.331"
"1.57637","1.1075","47.313","0.0114721","0.0117476","0.0123295","-0.00590061","102.401"
"1.5832","1.1082","47.513","0.0115238","0.0117883","0.0123758","-0.00591943","102.295"
"1.59077","1.11118","47.713","0.0115807","0.0118272","0.0124336","-0.00596413","102.129"
"1.59722","1.11551","47.913","0.0116315","0.0118625","0.0125134","-0.00600756","101.986"
"1.60342","1.11936","48.113","0.0116673","0.0119521","0.0125456","-0.0060033","102.441"
"1.60991","1.12179","48.313","0.0117086","0.0119889","0.0126018","-0.00603145","102.394"
"1.61646","1.12223","48.513","0.0117396","0.0120109","0.0126721","-0.00604492","102.311"
"1.62383","1.12638","48.713","0.0118047","0.0120733","0.0127766","-0.00609352","102.275"
"1.63052","1.13093","48.913","0.01184","0.0121041","0.0128458","-0.00607116","102.231"
"1.6373","1.13442","49.113","0.0119261","0.0121661","0.0129544","-0.0061007","102.012"
"1.64351","1.13404","49.313","0.011965","0.0121964","0.0129953","-0.00609524","101.934"
"1.65005","1.13607","49.513","0.0119938","0.0122614","0.0130348","-0.00611201","102.231"
"1.65713","1.13997","49.713","0.0120233","0.0123136","0.0130379","-0.00612252","102.414"
"1.66372","1.13978","49.913","0.0120865","0.0123602","0.0130701","-0.00614985","102.265"
"1.67061","1.14281","50.113","0.0120753","0.0124004","0.0131426","-0.00620497","102.692"
"1.67734","1.14524","50.313","0.0121418","0.012456","0.0131669","-0.00622589","102.588"
"1.68369","1.14738","50.513","0.0121786","0.0124905","0.0132244","-0.00630395","102.561"
"1.69062","1.15147","50.713","0.0122221","0.0125366","0.013273","-0.00632692","102.573"
"1.69683","1.15226","50.913","0.0123191","0.012599","0.0133923","-0.00638851","102.272"
"1.70347","1.1577","51.113","0.012347","0.0126152","0.0134016","-0.00638309","102.172"
"1.71035","1.1603","51.313","0.0124254","0.0127172","0.0136164","-0.00637996","102.348"
"1.71724","1.16387","51.513","0.0124911","0.012762","0.0137335","-0.00638859","102.169"
"1.72402","1.16439","51.713","0.0124858","0.0127863","0.0137724","-0.00643161","102.407"
"1.73022","1.16638","51.913","0.0124988","0.0128425","0.0138288","-0.0062901","102.75"
"1.73652","1.16865","52.113","0.0124808","0.0128816","0.0138351","-0.0064568","103.211"
"1.74331","1.17004","52.313","0.0125091","0.0129063","0.0137979","-0.00643167","103.175"
"1.75029","1.17183","52.513","0.0125751","0.0129718","0.0138393","-0.00649162","103.155"
"1.75767","1.17859","52.713","0.0126584","0.0130804","0.0139029","-0.00648668","103.334"
"1.76362","1.1823","52.913","0.0127275","0.0131149","0.0138988","-0.00655436","103.044"
"1.76997","1.18238","53.113","0.0127861","0.0131414","0.0139046","-0.0065613","102.779"
"1.77651","1.18258","53.313","0.0128836","0.0132207","0.0140299","-0.00659227","102.617"
"1.78335","1.184","53.513","0.0129776","0.0132282","0.01409","-0.00658248","101.931"
"1.79082","1.18854","53.713","0.0130287","0.0132572","0.0141425","-0.00665391","101.754"
"1.79722","1.19074","53.913","0.013132","0.0133617","0.0143186","-0.00666739","101.749"
"1.80342","1.19313","54.113","0.0131559","0.0134093","0.0143894","-0.00665385","101.926"
"1.80981","1.19513","54.313","0.0131788","0.0134935","0.014466","-0.00673701","102.388"
"1.81641","1.19407","54.513","0.0131973","0.0135515","0.0145123","-0.00675557","102.684"
"1.82378","1.20076","54.713","0.0131401","0.0136097","0.0145573","-0.00661691","103.574"
"1.83047","1.20374","54.913","0.0131983","0.0136893","0.0146534","-0.00673241","103.72"
"1.83721","1.20507","55.113","0.0132383","0.0137772","0.0146654","-0.00673807","104.071"
"1.84341","1.20669","55.313","0.0132423","0.013749","0.0147233","-0.00676535","103.826"
"1.8499","1.20936","55.513","0.0132659","0.0137837","0.0146889","-0.00685209","103.903"
"1.85693","1.2131","55.713","0.0133588","0.0138144","0.0147208","-0.00684219","103.41"
"1.86353","1.21256","55.913","0.0134203","0.0137823","0.0147075","-0.00684596","102.697"
"1.87036","1.21589","56.113","0.0135009","0.0138204","0.0147235","-0.00691754","102.367"
"1.87705","1.21663","56.313","0.0137322","0.013881","0.0149248","-0.00695789","101.084"
"1.8834","1.22297","56.513","0.013768","0.0140114","0.0150209","-0.0069553","101.768"
"1.89023","1.22368","56.713","0.0138089","0.0140941","0.0150467","-0.00695073","102.065"
"1.89658","1.22427","56.913","0.0137815","0.0141222","0.0150947","-0.00696459","102.472"
"1.90327","1.22579","57.113","0.0137971","0.0142284","0.015162","-0.00698211","103.126"
"1.91021","1.22883","57.313","0.0138401","0.0143812","0.0152779","-0.00689537","103.91"
"1.91709","1.22978","57.513","0.0138081","0.014446","0.0153336","-0.00700966","104.62"
"1.92388","1.2317","57.713","0.0137939","0.0144653","0.0153615","-0.00706333","104.867"
"1.93008","1.23402","57.913","0.0138389","0.0144849","0.0153958","-0.00710487","104.668"
"1.93643","1.23452","58.113","0.0138636","0.0144501","0.0154031","-0.00713094","104.23"
"1.94331","1.23805","58.313","0.0138812","0.0144898","0.0154307","-0.00711124","104.384"
"1.95029","1.24172","58.513","0.0140273","0.0145604","0.0154759","-0.00715167","103.8"
"1.95771","1.24342","58.713","0.0141858","0.0145827","0.0155712","-0.00715632","102.798"
"1.96362","1.24388","58.913","0.0141929","0.0145071","0.0155844","-0.00723088","102.214"
"1.96997","1.24686","59.113","0.0143004","0.0146225","0.0156405","-0.00724662","102.252"
"1.97651","1.2451","59.313","0.0143987","0.0146926","0.0157284","-0.0072546","102.041"
"1.98325","1.24934","59.513","0.0144143","0.0147851","0.0157324","-0.00729066","102.572"
"1.99087","1.2512","59.713","0.0144314","0.0148872","0.0157865","-0.00731686","103.158"
"1.99731","1.25287","59.913","0.0144853","0.0149711","0.0158444","-0.00727213","103.354"
"2.00361","1.25292","60.113","0.0144616","0.0150785","0.0158703","-0.00718896","104.266"
"2.01006","1.25665","60.313","0.014489","0.0151422","0.0159304","-0.00719585","104.508"
"2.01665","1.25608","60.513","0.0145141","0.0151694","0.0159884","-0.00731473","104.515"
"2.02407","1.25727","60.713","0.0145569","0.0152066","0.016046","-0.00740249","104.463"
"2.03066","1.26141","60.913","0.0146685","0.0152289","0.0160783","-0.00737895","103.82"
"2.03745","1.26271","61.113","0.0147351","0.0152433","0.0161613","-0.0074383","103.449"
"2.04351","1.26193","61.313","0.014833","0.0152509","0.016218","-0.00743672","102.817"
"2.05005","1.26469","61.513","0.0149586","0.0152569","0.0162746","-0.00745803","101.994"
"2.05698","1.26797","61.713","0.0149803","0.0153435","0.0163338","-0.00740063","102.425"
"2.06353","1.2672","61.913","0.0150626","0.0154174","0.0163728","-0.00750143","102.356"
"2.07026","1.27007","62.113","0.015103","0.015451","0.0163962","-0.00752944","102.304"
"2.07695","1.27118","62.313","0.0151803","0.0155889","0.0164114","-0.00752335","102.692"
"2.08335","1.27454","62.513","0.0152304","0.0156691","0.0164742","-0.00749697","102.88"
"2.09023","1.27273","62.713","0.0152774","0.0157356","0.0164728","-0.00744284","102.999"
"2.09663","1.27263","62.913","0.0153056","0.0157656","0.0165331","-0.00740991","103.005"
"2.10322","1.27592","63.113","0.0153109","0.0158276","0.0165803","-0.00735309","103.375"
"2.11021","1.27872","63.313","0.0153083","0.0158562","0.0166071","-0.00750977","103.579"
"2.11709","1.27895","63.513","0.0153582","0.0159124","0.0166892","-0.00751071","103.609"
"2.12393","1.28149","63.713","0.0154557","0.0159171","0.016797","-0.00754094","102.985"
"2.13013","1.28086","63.913","0.0155404","0.0159672","0.0168558","-0.00755763","102.746"
"2.13643","1.2827","64.113","0.0156278","0.0159957","0.0169333","-0.00755498","102.354"
"2.14326","1.28227","64.313","0.0156762","0.0160411","0.0170079","-0.00757219","102.328"
"2.15015","1.28249","64.513","0.0157292","0.016096","0.0170651","-0.00753736","102.332"
"2.15752","0.941499","64.713","0.0157707","0.0162062","0.0169823","-0.00752614","102.761"
"2.16353","0.939952","64.913","NaN","0.0163945","0.0171119","NaN","NaN"
"2.16978","0.941113","65.113","NaN","0.0164453","0.0171097","NaN","NaN"
"2.17637","0.943943","65.313","NaN","0.0165227","0.0171531","NaN","NaN"
"2.18315","0.941573","65.513","NaN","0.0165652","0.017128","NaN","NaN"
"2.19082","0.943824","65.713","NaN","0.0166384","0.0172029","NaN","NaN"
"2.19731","0.942819","65.913","NaN","0.0166257","0.01722","NaN","NaN"
"2.20356","0.945771","66.113","NaN","0.0167078","0.0172429","NaN","NaN"
"2.20991","0.945946","66.313","NaN","0.0167531","0.0173586","NaN","NaN"
"2.21641","0.947612","66.513","NaN","0.0168239","0.0174493","NaN","NaN"
"2.22378","0.947261","66.713","NaN","0.0168513","0.0175422","NaN","NaN"
"2.23037","0.949132","66.913","NaN","0.0169482","0.0176822","NaN","NaN"
"2.23716","0.950398","67.113","NaN","0.0170065","0.0178111","NaN","NaN"
"2.24331","0.950097","67.313","NaN","0.0170536","0.0178984","NaN","NaN"
"2.24985","0.950798","67.513","NaN","0.0170539","0.0178519","NaN","NaN"
"2.25688","0.950888","67.713","NaN","0.0171045","0.0179168","NaN","NaN"
"2.26348","0.9547","67.913","NaN","0.017185","0.0179303","NaN","NaN"
"2.27036","0.952447","68.113","NaN","0.0172204","0.0179146","NaN","NaN"
"2.2771","0.951009","68.313","NaN","0.0172378","0.0179595","NaN","NaN"
"2.28354","0.955668","68.513","NaN","0.0172892","0.0179628","NaN","NaN"
"2.29048","0.955528","68.713","NaN","0.0173091","0.0179783","NaN","NaN"
"2.29683","0.953588","68.913","NaN","0.0173231","0.0179987","NaN","NaN"
"2.30352","0.954362","69.113","NaN","0.0173811","0.0180351","NaN","NaN"
"2.31035","0.954565","69.313","NaN","0.0174354","0.0181628","NaN","NaN"
"2.31724","0.954943","69.513","NaN","0.017455","0.0182122","NaN","NaN"
"2.32402","0.957591","69.713","NaN","0.0174894","0.018338","NaN","NaN"
"2.33027","0.957503","69.913","NaN","0.0175542","0.018402","NaN","NaN"
"2.33667","0.955992","70.113","NaN","0.0175946","0.0185234","NaN","NaN"
"2.34355","0.958881","70.313","NaN","0.0176518","0.0185478","NaN","NaN"
"2.35068","0.597587","70.513","NaN","0.0177234","0.0185911","NaN","NaN"
"2.35811","0.595167","70.713","NaN","NaN","0.0184047","NaN","NaN"
"2.36396","0.597523","70.913","NaN","NaN","0.0184322","NaN","NaN"
"2.37026","0.593594","71.113","NaN","NaN","0.0184495","NaN","NaN"
"2.37676","0.595627","71.313","NaN","NaN","0.0184905","NaN","NaN"
"2.3835","0.592911","71.513","NaN","NaN","0.0185393","NaN","NaN"
"2.39102","0.592517","71.713","NaN","NaN","0.0185141","NaN","NaN"
"2.39731","0.593675","71.913","NaN","NaN","0.0186254","NaN","NaN"
"2.40342","0.594858","72.113","NaN","NaN","0.0186574","NaN","NaN"
"2.40981","0.594124","72.313","NaN","NaN","0.018705","NaN","NaN"
"2.41631","0.590206","72.513","NaN","NaN","0.0187291","NaN","NaN"
"2.42368","0.594421","72.713","NaN","NaN","0.018759","NaN","NaN"
"2.43042","0.591727","72.913","NaN","NaN","0.0186664","NaN","NaN"
"2.43394","0.59128","73.013","NaN","NaN","0.0187193","NaN","NaN"
"2.43721","0.5916","73.113","NaN","NaN","0.0187325","NaN","NaN"
"2.44058","0.589666","73.213","NaN","NaN","0.0187724","NaN","NaN"
"2.44341","0.591549","73.313","NaN","NaN","0.0187162","NaN","NaN"
"2.44668","0.589366","73.413","NaN","NaN","0.018737","NaN","NaN"
"2.4499","0.590056","73.513","NaN","NaN","0.0187445","NaN","NaN"
"2.45361","0.591082","73.613","NaN","NaN","0.0187217","NaN","NaN"
"2.45698","0.589663","73.713","NaN","NaN","0.0187377","NaN","NaN"
"2.4605","0.590197","73.813","NaN","NaN","0.0188223","NaN","NaN"
"2.46362","0.591653","73.913","NaN","NaN","0.0188391","NaN","NaN"
"2.46714","0.590476","74.013","NaN","NaN","0.0188347","NaN","NaN"
"2.47056","0.588442","74.113","NaN","NaN","0.018851","NaN","NaN"
"2.47422","0.588003","74.213","NaN","NaN","0.01884","NaN","NaN"
"2.47725","0.585838","74.313","NaN","NaN","0.0188561","NaN","NaN"
"2.48066","0.588767","74.413","NaN","NaN","0.0188559","NaN","NaN"
"2.48369","0.588357","74.513","NaN","NaN","0.0188799","NaN","NaN"
"2.48721","0.586326","74.613","NaN","NaN","0.0188532","NaN","NaN"
"2.49058","0.586138","74.713","NaN","NaN","0.0188671","NaN","NaN"
"2.49399","0.589192","74.813","NaN","NaN","0.0189709","NaN","NaN"
"2.49683","0.587168","74.913","NaN","NaN","0.0189703","NaN","NaN"
"2.50015","0.586053","75.013","NaN","NaN","0.0189513","NaN","NaN"
"2.50352","0.586448","75.113","NaN","NaN","0.0189806","NaN","NaN"
"2.50718","0.585923","75.213","NaN","NaN","0.0189421","NaN","NaN"
"2.5105","0.585108","75.313","NaN","NaN","0.0189062","NaN","NaN"
"2.51421","0.585928","75.413","NaN","NaN","0.0188808","NaN","NaN"
"2.51743","0.583887","75.513","NaN","NaN","0.0189423","NaN","NaN"
"2.521","0.58487","75.613","NaN","NaN","0.0189477","NaN","NaN"
"2.52422","0.584549","75.713","NaN","NaN","0.01895","NaN","NaN"
"2.52754","0.581457","75.813","NaN","NaN","0.0189201","NaN","NaN"
"2.53042","0.584624","75.913","NaN","NaN","0.0189357","NaN","NaN"
"2.53364","0.581839","76.013","NaN","NaN","0.018922","NaN","NaN"
"2.53667","0.582837","76.113","NaN","NaN","0.0189258","NaN","NaN"
"2.54019","0.583047","76.213","NaN","NaN","0.0189496","NaN","NaN"
"2.54351","0.583432","76.313","NaN","NaN","0.0188969","NaN","NaN"
"2.54707","0.580053","76.413","NaN","NaN","0.0189295","NaN","NaN"
"2.55039","0.581483","76.513","NaN","NaN","0.0189277","NaN","NaN"
"2.55425","0.579382","76.613","NaN","NaN","0.0189128","NaN","NaN"
"2.55771","0.580194","76.713","NaN","NaN","0.0189086","NaN","NaN"
"2.56099","0.578081","76.813","NaN","NaN","0.0189493","NaN","NaN"
"2.56362","0.579787","76.913","NaN","NaN","0.0189271","NaN","NaN"
"2.5667","0.580046","77.013","NaN","NaN","0.018931","NaN","NaN"
"2.56992","0.578862","77.113","NaN","NaN","0.0189344","NaN","NaN"
"2.57344","0.579424","77.213","NaN","NaN","0.0188234","NaN","NaN"
"2.57642","0.579321","77.313","NaN","NaN","0.0188191","NaN","NaN"
"2.57979","0.578389","77.413","NaN","NaN","0.0188544","NaN","NaN"
"2.58315","0.58022","77.513","NaN","NaN","0.018866","NaN","NaN"
"2.58706","0.5762","77.613","NaN","NaN","0.01883","NaN","NaN"
"2.59077","0.575287","77.713","NaN","NaN","0.01884","NaN","NaN"
"2.59434","0.576182","77.813","NaN","NaN","0.0188204","NaN","NaN"
"2.59717","0.575235","77.913","NaN","NaN","0.0188543","NaN","NaN"
"2.60039","0.576389","78.013","NaN","NaN","0.0188317","NaN","NaN"
"2.60347","0.576485","78.113","NaN","NaN","0.018813","NaN","NaN"
"2.60684","0.573712","78.213","NaN","NaN","0.0187977","NaN","NaN"
"2.60986","0.575586","78.313","NaN","NaN","0.0187585","NaN","NaN"
"2.61323","0.577239","78.413","NaN","NaN","0.0187735","NaN","NaN"
"2.61641","0.573814","78.513","NaN","NaN","0.0187511","NaN","NaN"
"2.62017","0.571735","78.613","NaN","NaN","0.0187226","NaN","NaN"
"2.62383","0.570964","78.713","NaN","NaN","0.0187299","NaN","NaN"
"2.62744","0.572752","78.813","NaN","NaN","0.0187118","NaN","NaN"
"2.63047","0.571569","78.913","NaN","NaN","0.0186939","NaN","NaN"
"2.63408","0.57232","79.013","NaN","NaN","0.0186398","NaN","NaN"
"2.6373","0.571624","79.113","NaN","NaN","0.0186489","NaN","NaN"
"2.64058","0.568658","79.213","NaN","NaN","0.0186236","NaN","NaN"
"2.64341","0.565493","79.313","NaN","NaN","0.0185887","NaN","NaN"
"2.64668","0.564031","79.413","NaN","NaN","0.0185894","NaN","NaN"
"2.65","0.562382","79.513","NaN","NaN","0.0182319","NaN","NaN"
"2.65371","0.559643","79.613","NaN","NaN","0.018166","NaN","NaN"
"2.65703","0.558228","79.713","NaN","NaN","0.0180884","NaN","NaN"
"2.6605","0.556548","79.813","NaN","NaN","0.0180703","NaN","NaN"
"2.66367","0.545552","79.913","NaN","NaN","0.0180472","NaN","NaN"
"2.66724","0.540655","80.013","NaN","NaN","0.0178963","NaN","NaN"
"2.67061","0.534734","80.113","NaN","NaN","0.0178016","NaN","NaN"
"2.67422","0.527631","80.213","NaN","NaN","0.017193","NaN","NaN"
"2.67734","0.479153","80.313","NaN","NaN","0.0170348","NaN","NaN"
"2.68071","0.470623","80.413","NaN","NaN","0.0169148","NaN","NaN"
"2.68379","0.183196","80.513","NaN","NaN","0.0181258","NaN","NaN"
"2.6874","0.199808","80.613","NaN","NaN","0.0177446","NaN","NaN"
"2.69082","0.199749","80.713","NaN","NaN","NaN","NaN","NaN"
"2.69429","0.19457","80.813","NaN","NaN","NaN","NaN","NaN"
"2.69712","0.194301","80.913","NaN","NaN","NaN","NaN","NaN"
"2.70049","0.195144","81.013","NaN","NaN","NaN","NaN","NaN"
"2.70376","0.193389","81.113","NaN","NaN","NaN","NaN","NaN"
"2.70742","0.195944","81.213","NaN","NaN","NaN","NaN","NaN"
"2.71074","0.195884","81.313","NaN","NaN","NaN","NaN","NaN"
"2.7144","0.194342","81.413","NaN","NaN","NaN","NaN","NaN"
"2.71758","0.195048","81.513","NaN","NaN","NaN","NaN","NaN"
"2.72109","0.196634","81.613","NaN","NaN","NaN","NaN","NaN"
"2.72422","0.194178","81.713","NaN","NaN","NaN","NaN","NaN"
"2.72754","0.196403","81.813","NaN","NaN","NaN","NaN","NaN"
"2.73032","0.193603","81.913","NaN","NaN","NaN","NaN","NaN"
"2.73354","0.194128","82.013","NaN","NaN","NaN","NaN","NaN"
"2.73657","0.19288","82.113","NaN","NaN","NaN","NaN","NaN"
"2.74004","0.195206","82.213","NaN","NaN","NaN","NaN","NaN"
"2.74341","0.19507","82.313","NaN","NaN","NaN","NaN","NaN"
"2.74697","0.192319","82.413","NaN","NaN","NaN","NaN","NaN"
"2.75024","0.196298","82.513","NaN","NaN","NaN","NaN","NaN"
"2.75415","0.194585","82.613","NaN","NaN","NaN","NaN","NaN"
"2.75767","0.194117","82.713","NaN","NaN","NaN","NaN","NaN"
"2.76094","0.194419","82.813","NaN","NaN","NaN","NaN","NaN"
"2.76357","0.19237","82.913","NaN","NaN","NaN","NaN","NaN"
"2.7667","0.195634","83.013","NaN","NaN","NaN","NaN","NaN"
"2.76987","0.194614","83.113","NaN","NaN","NaN","NaN","NaN"
"2.77339","0.193547","83.213","NaN","NaN","NaN","NaN","NaN"
"2.77642","0.197206","83.313","NaN","NaN","NaN","NaN","NaN"
"2.77979","0.194123","83.413","NaN","NaN","NaN","NaN","NaN"
"2.7832","0.194161","83.513","NaN","NaN","NaN","NaN","NaN"
"2.78706","0.193683","83.613","NaN","NaN","NaN","NaN","NaN"
"2.79077","0.194321","83.713","NaN","NaN","NaN","NaN","NaN"
"2.79438","0.196732","83.813","NaN","NaN","NaN","NaN","NaN"
"2.79722","0.195741","83.913","NaN","NaN","NaN","NaN","NaN"
"2.80044","0.195759","84.013","NaN","NaN","NaN","NaN","NaN"
"2.80347","0.1947","84.113","NaN","NaN","NaN","NaN","NaN"
"2.80688","0.195714","84.213","NaN","NaN","NaN","NaN","NaN"
"2.80996","0.197021","84.313","NaN","NaN","NaN","NaN","NaN"
"2.81333","0.194083","84.413","NaN","NaN","NaN","NaN","NaN"
"2.81645","0.195721","84.513","NaN","NaN","NaN","NaN","NaN"
"2.82017","0.195223","84.613","NaN","NaN","NaN","NaN","NaN"
"2.82383","0.194463","84.713","NaN","NaN","NaN","NaN","NaN"
"2.82744","0.195182","84.813","NaN","NaN","NaN","NaN","NaN"
"2.83047","0.192783","84.913","NaN","NaN","NaN","NaN","NaN"
"2.83398","0.193435","85.013","NaN","NaN","NaN","NaN","NaN"
"2.83726","0.195675","85.113","NaN","NaN","NaN","NaN","NaN"
"2.84062","0.192881","85.213","NaN","NaN","NaN","NaN","NaN"
"2.84346","0.194346","85.313","NaN","NaN","NaN","NaN","NaN"
"2.84673","0.19428","85.413","NaN","NaN","NaN","NaN","NaN"
"2.85","0.195997","85.513","NaN","NaN","NaN","NaN","NaN"
"2.85371","0.194276","85.613","NaN","NaN","NaN","NaN","NaN"
"2.85708","0.196098","85.713","NaN","NaN","NaN","NaN","NaN"
"2.8606","0.195768","85.813","NaN","NaN","NaN","NaN","NaN"
"2.86367","0.194334","85.913","NaN","NaN","NaN","NaN","NaN"
"2.86714","0.195714","86.013","NaN","NaN","NaN","NaN","NaN"
"2.87051","0.195904","86.113","NaN","NaN","NaN","NaN","NaN"
"2.87417","0.196887","86.213","NaN","NaN","NaN","NaN","NaN"
"2.87725","0.19531","86.313","NaN","NaN","NaN","NaN","NaN"
"2.88057","0.195979","86.413","NaN","NaN","NaN","NaN","NaN"
"2.88359","0.194998","86.513","NaN","NaN","NaN","NaN","NaN"
"2.88711","0.194166","86.613","NaN","NaN","NaN","NaN","NaN"
"2.89058","0.192088","86.713","NaN","NaN","NaN","NaN","NaN"
"2.89399","0.194136","86.813","NaN","NaN","NaN","NaN","NaN"
"2.89678","0.19471","86.913","NaN","NaN","NaN","NaN","NaN"
"2.90005","0.195814","87.013","NaN","NaN","NaN","NaN","NaN"
"2.90342","0.193819","87.113","NaN","NaN","NaN","NaN","NaN"
"2.90708","0.195736","87.213","NaN","NaN","NaN","NaN","NaN"
"2.9103","0.1946","87.313","NaN","NaN","NaN","NaN","NaN"
"2.91392","0.195616","87.413","NaN","NaN","NaN","NaN","NaN"
"2.91714","0.193395","87.513","NaN","NaN","NaN","NaN","NaN"
"2.9207","0.193011","87.613","NaN","NaN","NaN","NaN","NaN"
"2.92388","0.197356","87.713","NaN","NaN","NaN","NaN","NaN"
"2.9272","0.19691","87.813","NaN","NaN","NaN","NaN","NaN"
"2.93008","0.193348","87.913","NaN","NaN","NaN","NaN","NaN"
"2.93335","0.192945","88.013","NaN","NaN","NaN","NaN","NaN"
"2.93643","0.195307","88.113","NaN","NaN","NaN","NaN","NaN"
"2.93994","0.195836","88.213","NaN","NaN","NaN","NaN","NaN"
"2.94331","0.196487","88.313","NaN","NaN","NaN","NaN","NaN"
"2.94692","0.195273","88.413","NaN","NaN","NaN","NaN","NaN"
"2.95029","0.197519","88.513","NaN","NaN","NaN","NaN","NaN"
"2.9542","0.194549","88.613","NaN","NaN","NaN","NaN","NaN"
"2.95767","0.195925","88.713","NaN","NaN","NaN","NaN","NaN"
"2.96094","0.196927","88.813","NaN","NaN","NaN","NaN","NaN"
"2.96362","0.193389","88.913","NaN","NaN","NaN","NaN","NaN"
"2.9668","0.195493","89.013","NaN","NaN","NaN","NaN","NaN"
"2.96997","0.195406","89.113","NaN","NaN","NaN","NaN","NaN"
"2.97349","0.194326","89.213","NaN","NaN","NaN","NaN","NaN"
"2.97651","0.19713","89.313","NaN","NaN","NaN","NaN","NaN"
"2.98003","0.195566","89.413","NaN","NaN","NaN","NaN","NaN"
"2.98345","0.196804","89.513","NaN","NaN","NaN","NaN","NaN"
"2.98735","0.192907","89.613","NaN","NaN","NaN","NaN","NaN"
"2.99106","0.194494","89.713","NaN","NaN","NaN","NaN","NaN"
"2.99468","0.194197","89.813","NaN","NaN","NaN","NaN","NaN"