File: Raw_Data./Tensile Nozzle 0.4 mm/0 Degrees/LH0.1_0D_N0.4/Test Run 4 05-19-21 11 17 13 AM/DAQ- Crosshead, … - (Timed).csv
"File Path: G:\TT\3\Test Run 4 05-19-21 11 17 13 AM\DAQ- Crosshead, … - (Timed).csv   "
"Test: Robin_Tension_4_DIC_Signals 3"
"Test Run: Test Run 4"
"Date: 18/05/2021 13:57:23"
""
""
"Crosshead ","Load ","Time ","Strain 1 ","Strain 2 ","Strain 3 ","Strain 4 ","PoissonRatio "
"mm","kN","sec","mm/mm","mm/mm","mm/mm","mm/mm","%"
"0.000341797","-0.0182649","0.121","-0.000112224","-0.000128595","-0.000132476","1.48175e-05","114.588"
"0.00390625","-0.0165351","0.321","-9.48674e-05","-0.000134502","-0.000125086","-3.45881e-05","141.779"
"0.00996094","-0.00914732","0.521","-5.34848e-05","-6.47907e-05","-6.6631e-05","-2.82419e-05","121.139"
"0.0167969","-0.00755836","0.721","3.38135e-05","-6.92462e-06","5.64836e-05","-2.53924e-05","-20.4789"
"0.0247559","0.00512944","0.921","0.000129531","0.000104867","0.000170039","-6.53382e-05","80.959"
"0.0320313","0.0113732","1.121","0.000250368","0.000222862","0.000277356","-9.25248e-05","89.0138"
"0.0394043","0.0195312","1.321","0.000334732","0.000263353","0.00036748","-0.000115777","78.6758"
"0.0460449","0.0249517","1.521","0.000376995","0.000350764","0.000428408","-0.000156787","93.0421"
"0.053418","0.0332013","1.721","0.000462161","0.000394562","0.000504965","-0.000137965","85.3733"
"0.0607422","0.0426986","1.921","0.000514821","0.000500407","0.000593297","-0.000133356","97.2002"
"0.0677246","0.0455189","2.121","0.000618429","0.000605064","0.000691284","-0.000156505","97.8389"
"0.0749512","0.0546497","2.321","0.000774232","0.000765635","0.000844096","-0.000158691","98.8896"
"0.0816406","0.061909","2.521","0.000852279","0.000899668","0.000948381","-0.000142579","105.56"
"0.0885742","0.0677301","2.721","0.000985468","0.00100232","0.00111421","-0.00024219","101.71"
"0.0954102","0.0746414","2.921","0.00113543","0.0011363","0.00128126","-0.000241708","100.077"
"0.102002","0.0825489","3.121","0.00120235","0.00124531","0.00135637","-0.000263194","103.573"
"0.109229","0.0907606","3.321","0.00124944","0.00134168","0.00139864","-0.000304525","107.383"
"0.116309","0.0942792","3.521","0.0012832","0.00138842","0.0014636","-0.000347022","108.2"
"0.123291","0.100721","3.721","0.00133999","0.00144994","0.00153666","-0.000327901","108.205"
"0.129639","0.105227","3.921","0.00134989","0.00148121","0.00153393","-0.000363413","109.728"
"0.136084","0.115059","4.121","0.00138606","0.00149705","0.00157398","-0.00038387","108.008"
"0.142969","0.120899","4.321","0.00144022","0.00147737","0.00163769","-0.000398522","102.579"
"0.150049","0.129274","4.521","0.00153658","0.00156181","0.00174301","-0.000384847","101.642"
"0.157471","0.137603","4.721","0.00155906","0.00159493","0.00175165","-0.00042858","102.301"
"0.163574","0.143233","4.921","0.00172709","0.0017988","0.00197794","-0.000410112","104.152"
"0.169922","0.152348","5.121","0.00184936","0.00192073","0.00208067","-0.000468189","103.859"
"0.176465","0.158575","5.321","0.00204235","0.00211781","0.00225727","-0.00044023","103.695"
"0.183301","0.162182","5.521","0.00208551","0.00213749","0.00233702","-0.000481929","102.492"
"0.190918","0.169735","5.721","0.00216625","0.00228714","0.00243637","-0.000518374","105.581"
"0.197314","0.173694","5.921","0.00225214","0.00237362","0.00253362","-0.000562469","105.394"
"0.203516","0.17974","6.121","0.00227079","0.00243122","0.00256534","-0.000636726","107.065"
"0.209912","0.187402","6.321","0.0022983","0.00248537","0.00257268","-0.000639406","108.139"
"0.216455","0.194933","6.521","0.00228851","0.00248214","0.00263042","-0.000661197","108.461"
"0.223779","0.201408","6.721","0.00235604","0.00256537","0.0026717","-0.000663206","108.885"
"0.230469","0.205055","6.921","0.00238559","0.00257285","0.00272697","-0.000711368","107.85"
"0.237207","0.213303","7.121","0.00245187","0.00260509","0.00280173","-0.000724697","106.249"
"0.243359","0.220631","7.321","0.00253672","0.00267396","0.00289946","-0.000706195","105.41"
"0.249854","0.226594","7.521","0.0025976","0.00276737","0.00295495","-0.000716595","106.536"
"0.256836","0.234926","7.721","0.00271124","0.00289221","0.00308435","-0.000715741","106.675"
"0.263428","0.241445","7.921","0.00281483","0.00293963","0.00317894","-0.000738459","104.434"
"0.270313","0.247438","8.121","0.0029015","0.00307751","0.00329242","-0.000792943","106.066"
"0.277002","0.25402","8.321","0.00300769","0.0031541","0.0033856","-0.000844958","104.868"
"0.283447","0.259118","8.521","0.00306335","0.00324118","0.00346815","-0.000851954","105.805"
"0.29043","0.2641","8.721","0.00314242","0.00331844","0.00352032","-0.000892362","105.601"
"0.29668","0.272079","8.921","0.00320462","0.00342324","0.00358388","-0.000918836","106.822"
"0.30332","0.277426","9.121","0.00320239","0.00343396","0.00360734","-0.000919486","107.231"
"0.310254","0.285226","9.321","0.00324471","0.00349948","0.00365019","-0.000951519","107.852"
"0.317139","0.289206","9.521","0.00327972","0.0035187","0.00372178","-0.000976766","107.287"
"0.323877","0.297087","9.721","0.00335383","0.00358415","0.00382601","-0.000985527","106.867"
"0.330078","0.304059","9.921","0.0034499","0.00368216","0.00390936","-0.000998753","106.732"
"0.336426","0.308855","10.121","0.00350974","0.00377728","0.00396898","-0.00100264","107.623"
"0.343262","0.31577","10.321","0.00360686","0.00387667","0.00410539","-0.00100962","107.48"
"0.350244","0.323993","10.521","0.00367093","0.00393862","0.0041576","-0.00107645","107.292"
"0.357568","0.331172","10.721","0.003747","0.0039864","0.00422537","-0.00106719","106.389"
"0.363525","0.336646","10.921","0.00381638","0.00401151","0.00429626","-0.00111678","105.113"
"0.369873","0.342794","11.121","0.00385898","0.00407983","0.0043716","-0.00112569","105.723"
"0.376465","0.346433","11.321","0.00388768","0.00412673","0.00442217","-0.00111019","106.149"
"0.383252","0.353564","11.521","0.00398866","0.00423164","0.0044906","-0.00117941","106.092"
"0.390869","0.361546","11.721","0.00403981","0.00425129","0.00451335","-0.00119909","105.235"
"0.397314","0.366298","11.921","0.00411183","0.0043772","0.00462317","-0.00123559","106.454"
"0.403564","0.371365","12.121","0.00419924","0.00447311","0.00476562","-0.00124815","106.522"
"0.409961","0.378923","12.321","0.00425589","0.00454223","0.00478024","-0.00122375","106.728"
"0.416553","0.383743","12.521","0.00433706","0.00459964","0.00491706","-0.00131661","106.054"
"0.423926","0.390215","12.721","0.00442613","0.00472622","0.00501733","-0.00132255","106.78"
"0.430566","0.39498","12.921","0.00448499","0.00482915","0.00506557","-0.00129664","107.674"
"0.437354","0.399283","13.121","0.00453494","0.00489435","0.00515121","-0.00135323","107.925"
"0.443506","0.405128","13.321","0.00458192","0.00493571","0.005193","-0.00135622","107.721"
"0.450049","0.410345","13.521","0.00459706","0.00497423","0.00521917","-0.0013789","108.205"
"0.45708","0.416502","13.721","0.00464306","0.00498607","0.00525369","-0.00139485","107.388"
"0.463672","0.422976","13.921","0.00467414","0.0050023","0.00529048","-0.00144716","107.021"
"0.470605","0.429454","14.121","0.00472503","0.0050329","0.00534475","-0.00146603","106.516"
"0.477295","0.432374","14.321","0.00478734","0.00508274","0.00537264","-0.00147891","106.17"
"0.483691","0.440543","14.521","0.00487896","0.00517113","0.00549173","-0.00150023","105.988"
"0.490625","0.44545","14.721","0.00495362","0.00524109","0.00560932","-0.00151087","105.803"
"0.496875","0.451376","14.921","0.00505343","0.00538781","0.00572148","-0.00156975","106.617"
"0.503467","0.457386","15.121","0.00519236","0.00556251","0.00584896","-0.0015831","107.129"
"0.5104","0.464583","15.321","0.00528755","0.00561283","0.00593295","-0.00157091","106.152"
"0.517285","0.469685","15.521","0.005364","0.00570491","0.00605607","-0.00161274","106.356"
"0.524023","0.474157","15.721","0.00540393","0.00579657","0.00609922","-0.00160962","107.266"
"0.530225","0.48102","15.921","0.00541687","0.0058639","0.00615046","-0.00164002","108.253"
"0.536475","0.484782","16.121","0.00543136","0.00589528","0.00614728","-0.00169205","108.542"
"0.543359","0.488191","16.321","0.00549567","0.0059083","0.00619637","-0.00167239","107.508"
"0.550244","0.498169","16.521","0.00549165","0.00590856","0.00622676","-0.00172698","107.592"
"0.557617","0.500384","16.721","0.00548392","0.00592302","0.00621387","-0.00174518","108.007"
"0.563574","0.506433","16.921","0.00559641","0.00595818","0.00632116","-0.00175029","106.464"
"0.569873","0.510398","17.121","0.0056713","0.0060428","0.00639111","-0.0017786","106.551"
"0.576465","0.516394","17.321","0.00575476","0.00610112","0.00648161","-0.00179728","106.019"
"0.583203","0.520382","17.521","0.00587541","0.00622038","0.00659754","-0.00186279","105.871"
"0.590869","0.524482","17.721","0.00597366","0.0063465","0.00675413","-0.00181619","106.241"
"0.597266","0.532874","17.921","0.00608801","0.00648757","0.00687933","-0.00186379","106.563"
"0.603564","0.537024","18.121","0.00614881","0.00657286","0.00694842","-0.00188698","106.896"
"0.609961","0.540541","18.321","0.00621526","0.00665259","0.00702671","-0.0019291","107.036"
"0.616504","0.544803","18.521","0.00623755","0.00671513","0.00702509","-0.00186332","107.657"
"0.623975","0.552159","18.721","0.0062562","0.00676366","0.00708631","-0.00196236","108.111"
"0.630713","0.557061","18.921","0.00636459","0.0068303","0.00717447","-0.00194831","107.317"
"0.6375","0.563179","19.121","0.00629185","0.00682668","0.00715117","-0.00197303","108.5"
"0.643652","0.567624","19.321","0.00630661","0.0068188","0.0072026","-0.00201068","108.121"
"0.650244","0.570989","19.521","0.0063623","0.00687695","0.00723944","-0.00203046","108.089"
"0.657227","0.57639","19.721","0.00638673","0.00688543","0.00726144","-0.00209265","107.808"
"0.663721","0.582712","19.921","0.00651281","0.00700188","0.00744022","-0.00208181","107.509"
"0.670605","0.586242","20.121","0.006594","0.00707842","0.00749915","-0.00213603","107.346"
"0.677148","0.593884","20.321","0.00676807","0.0072337","0.00767637","-0.00211569","106.88"
"0.683594","0.596418","20.521","0.00679236","0.00723698","0.00767214","-0.0021927","106.546"
"0.69043","0.603999","20.721","0.00686412","0.00732941","0.0077872","-0.00216789","106.779"
"0.696729","0.608157","20.921","0.00696545","0.00738806","0.00788785","-0.00219758","106.067"
"0.70332","0.61167","21.121","0.0070113","0.00752093","0.00792618","-0.00221052","107.269"
"0.710205","0.615815","21.321","0.00706301","0.00757611","0.00794415","-0.00219983","107.265"
"0.716992","0.622075","21.521","0.00713135","0.00763726","0.00800548","-0.00230285","107.094"
"0.723779","0.626415","21.721","0.00711673","0.00769304","0.00807172","-0.00229463","108.098"
"0.730029","0.630309","21.921","0.00715979","0.00771199","0.00810726","-0.00226159","107.713"
"0.736377","0.634708","22.121","0.00718419","0.00777906","0.00818814","-0.00236421","108.28"
"0.743213","0.638035","22.321","0.00719179","0.00780019","0.00829779","-0.00233593","108.46"
"0.750244","0.644704","22.521","0.00738221","0.00793967","0.00849306","-0.00235628","107.551"
"0.757568","0.648387","22.721","0.00742946","0.00803965","0.00846225","-0.00243395","108.213"
"0.763525","0.653822","22.921","0.00747523","0.00806934","0.00852866","-0.00247392","107.948"
"0.769873","0.65533","23.121","0.00759086","0.00819076","0.00865578","-0.0024136","107.903"
"0.776465","0.657726","23.321","0.00759508","0.00820852","0.00864949","-0.00248","108.077"
"0.783301","0.663843","23.521","0.00767803","0.00827098","0.00871481","-0.00252056","107.723"
"0.790967","0.671093","23.721","0.00771828","0.00828596","0.00876637","-0.00248998","107.355"
"0.797412","0.674683","23.921","0.00780231","0.00833948","0.00880782","-0.00252836","106.885"
"0.803613","0.679219","24.121","0.00782724","0.00839296","0.00887632","-0.00249008","107.228"
"0.810059","0.684594","24.321","0.00789962","0.00846126","0.00891842","-0.00255277","107.11"
"0.81665","0.687966","24.521","0.00795441","0.00853915","0.00899707","-0.00255751","107.351"
"0.824121","0.69403","24.721","0.00803164","0.00865733","0.00911816","-0.00261506","107.79"
"0.830762","0.697982","24.921","0.00809738","0.00871193","0.00922208","-0.00261442","107.589"
"0.8375","0.700812","25.121","0.00819656","0.00881474","0.00936335","-0.00265276","107.542"
"0.843652","0.707477","25.321","0.00825138","0.00892932","0.00943779","-0.00272645","108.216"
"0.850049","0.712885","25.521","0.00827738","0.00902643","0.00949787","-0.00268517","109.049"
"0.85708","0.716122","25.721","0.00833209","0.00906001","0.00955638","-0.0027212","108.736"
"0.863574","0.720951","25.921","0.00836074","0.00909132","0.00954835","-0.00274045","108.738"
"0.870508","0.728648","26.121","0.00837002","0.0091213","0.00957364","-0.00276823","108.976"
"0.877197","0.73188","26.321","0.00847247","0.00916602","0.00960597","-0.00277049","108.186"
"0.883545","0.734715","26.521","0.00848669","0.00913865","0.00962466","-0.00280304","107.682"
"0.890478","0.737205","26.721","0.00854874","0.00918557","0.00968722","-0.00279213","107.449"
"0.89668","0.743224","26.921","0.00863812","0.00926203","0.00980149","-0.00286318","107.223"
"0.903369","0.747793","27.121","0.00870806","0.00932858","0.00983799","-0.00287963","107.126"
"0.910352","0.752854","27.321","0.00875834","0.00943751","0.0099937","-0.00287727","107.755"
"0.917236","0.755838","27.521","0.00890677","0.00954743","0.0100975","-0.00289831","107.193"
"0.923975","0.759122","27.721","0.00898854","0.00964559","0.0102019","-0.00293272","107.31"
"0.930078","0.767844","27.921","0.00907908","0.00975318","0.0103135","-0.00294652","107.425"
"0.936328","0.767587","28.121","0.00908283","0.00984655","0.0103554","-0.00298029","108.408"
"0.943066","0.77165","28.321","0.00908236","0.00992109","0.0104045","-0.00303293","109.235"
"0.95","0.776182","28.521","0.00910804","0.00998252","0.0104592","-0.0030243","109.601"
"0.957373","0.780258","28.721","0.00916818","0.0100009","0.0104912","-0.00306376","109.083"
"0.963428","0.783756","28.921","0.00918693","0.0100241","0.0104916","-0.00306005","109.113"
"0.969824","0.78733","29.121","0.00922997","0.0100367","0.0105219","-0.00309064","108.74"
"0.976416","0.7954375","29.321","0.00927635","0.0100756","0.0105515","-0.00307579","108.616"
"0.983252","0.798322","29.521","0.00931984","0.0100608","0.0106255","-0.0031114","107.95"
"0.990869","0.802735","29.721","0.00939971","0.0101125","0.0106906","-0.00311645","107.583"
"0.997412","0.807444","29.921","0.00947316","0.0102064","0.0108179","-0.00314266","107.74"
"1.00356","0.811636","30.121","0.00964033","0.0103323","0.0109514","-0.0032197","107.178"
"1.01001","0.815209","30.321","0.0097394","0.0104279","0.0110475","-0.00321752","107.069"
"1.01655","0.814001","30.521","0.00982764","0.0105731","0.0111702","-0.00325045","107.585"
"1.02388","0.822223","30.721","0.00990544","0.0106372","0.011216","-0.00324959","107.387"
"1.03052","0.823774","30.921","0.00991778","0.0107478","0.0112931","-0.00327171","108.369"
"1.03721","0.829199","31.121","0.00992155","0.0107899","0.0113315","-0.00334407","108.752"
"1.04341","0.831572","31.321","0.00997849","0.0108716","0.0113743","-0.00333524","108.95"
"1.0499","0.836967","31.521","0.00997703","0.0108881","0.0114136","-0.00334199","109.132"
"1.05698","0.841507","31.721","0.00999161","0.0109185","0.011446","-0.00332412","109.277"
"1.06357","0.849588","31.921","0.0100069","0.0109188","0.0114681","-0.00335191","109.113"
"1.07046","0.8493","32.121","0.0101019","0.0109719","0.0115361","-0.00335732","108.612"
"1.0772","0.853191","32.321","0.0101839","0.0110307","0.0116541","-0.00341305","108.315"
"1.08354","0.857834","32.521","0.0102505","0.0110727","0.0117111","-0.00336448","108.021"
"1.09048","0.863277","32.721","0.0103546","0.0111796","0.0118346","-0.00347661","107.967"
"1.09678","0.865612","32.921","0.0104481","0.0112487","0.0118807","-0.00347365","107.663"
"1.10352","0.868022","33.121","0.0104285","0.0113501","0.0119795","-0.00347735","108.837"
"1.1104","0.872904","33.321","0.0105088","0.0114031","0.012014","-0.00353096","108.51"
"1.11729","0.876882","33.521","0.0106075","0.0114963","0.0121074","-0.00353497","108.379"
"1.12407","0.884595","33.721","0.0106917","0.0115727","0.0121585","-0.00356982","108.24"
"1.13027","0.887144","33.921","0.0107478","0.0116303","0.0122188","-0.0036728","108.211"
"1.13667","0.889229","34.121","0.0107818","0.0116672","0.012256","-0.00355844","108.212"
"1.14355","0.89364","34.321","0.0107251","0.0117011","0.0122559","-0.00371316","109.1"
"1.15063","0.899","34.521","0.0108114","0.0118011","0.0123687","-0.00361535","109.154"
"1.15806","0.905703","34.721","0.010822","0.0118052","0.0124759","-0.00367947","109.085"
"1.16401","0.903884","34.921","0.0109388","0.0119209","0.0125349","-0.00374204","108.978"
"1.17041","0.910553","35.121","0.0109764","0.0119525","0.0126035","-0.003632","108.893"
"1.17681","0.911064","35.321","0.0109436","0.0120339","0.0126909","-0.00371034","109.963"
"1.18359","0.915833","35.521","0.0110585","0.01215","0.0127802","-0.00372454","109.87"
"1.19111","0.921889","35.721","0.0111621","0.0121968","0.0127957","-0.00375708","109.27"
"1.19741","0.922211","35.921","0.0112463","0.012227","0.0128703","-0.0037611","108.72"
"1.20356","0.92959","36.121","0.0113129","0.012282","0.0128964","-0.00380177","108.566"
"1.20991","0.930402","36.321","0.0113461","0.0122968","0.0129347","-0.00385513","108.379"
"1.21641","0.933675","36.521","0.0114584","0.0124203","0.0130676","-0.003858","108.395"
"1.22373","0.939467","36.721","0.011463","0.0124117","0.0131004","-0.00389178","108.276"
"1.23042","0.944369","36.921","0.011516","0.0125165","0.0131591","-0.00387024","108.688"
"1.23716","0.946687","37.121","0.0115072","0.0125597","0.0132433","-0.00389728","109.146"
"1.24341","0.949833","37.321","0.0115577","0.0126806","0.0133826","-0.00396154","109.716"
"1.2499","0.953081","37.521","0.0116348","0.0127488","0.0134872","-0.00390614","109.575"
"1.25698","0.957401","37.721","0.0116935","0.0128037","0.0135218","-0.00398682","109.494"
"1.26357","0.959474","37.921","0.0117117","0.0129437","0.0135919","-0.0039726","110.519"
"1.27041","0.965185","38.121","0.0118098","0.0130206","0.0136265","-0.00399333","110.252"
"1.2771","0.967466","38.321","0.0118606","0.0130501","0.0136789","-0.00404016","110.029"
"1.2834","0.970496","38.521","0.0119441","0.0131007","0.0137283","-0.00406602","109.683"
"1.29038","0.975602","38.721","0.0119847","0.0131236","0.0137436","-0.00405158","109.503"
"1.29668","0.979498","38.921","0.0120797","0.0131075","0.013777","-0.00407567","108.508"
"1.30337","0.980106","39.121","0.0121239","0.013133","0.0138092","-0.00413529","108.323"
"1.31035","0.985607","39.321","0.0121525","0.0131697","0.0138785","-0.0041434","108.37"
"1.31729","0.991029","39.521","0.0122458","0.013273","0.0140005","-0.00415423","108.388"
"1.32412","0.996595","39.721","0.0122932","0.0133398","0.0141051","-0.0042017","108.514"
"1.33027","0.995525","39.921","0.0123157","0.0134123","0.0141792","-0.00423353","108.904"
"1.33672","1.00103","40.121","0.0124124","0.0135721","0.0143332","-0.00423859","109.343"
"1.34351","1.00443","40.321","0.0125032","0.0136454","0.0144433","-0.00423343","109.135"
"1.35049","1.00823","40.521","0.0125717","0.0137653","0.0145043","-0.00428503","109.494"
"1.35776","1.01124","40.721","0.0125644","0.0138247","0.0145302","-0.00427298","110.031"
"1.36362","1.01414","40.921","0.0126667","0.013945","0.0145905","-0.00427506","110.092"
"1.36997","1.01778","41.121","0.0127004","0.013926","0.0145896","-0.00432436","109.65"
"1.37642","1.02066","41.321","0.0127543","0.0139838","0.014638","-0.0043153","109.64"
"1.3833","1.02547","41.521","0.012734","0.0139411","0.0146056","-0.00437018","109.479"
"1.39092","1.02928","41.721","0.0128333","0.0139694","0.0146577","-0.00434371","108.853"
"1.39741","1.03268","41.921","0.012899","0.0139772","0.0147238","-0.00441265","108.359"
"1.40356","1.03647","42.121","0.0129378","0.0140595","0.0148486","-0.00444343","108.67"
"1.41001","1.03889","42.321","0.0129851","0.0141136","0.0149185","-0.00444057","108.691"
"1.41655","1.04029","42.521","0.0130629","0.014173","0.0149969","-0.00444528","108.498"
"1.42393","1.04274","42.721","0.0131767","0.0143023","0.0151152","-0.00450473","108.542"
"1.43062","1.04733","42.921","0.0132916","0.0144066","0.0152252","-0.00452266","108.389"
"1.43735","1.05229","43.121","0.0133697","0.0145505","0.0152891","-0.00454793","108.832"
"1.44351","1.05574","43.321","0.0134498","0.014568","0.0153091","-0.00453804","108.314"
"1.45005","1.05803","43.521","0.0134349","0.0146403","0.0153369","-0.00447885","108.972"
"1.45703","1.0601","43.721","0.0135085","0.014734","0.0153963","-0.00455614","109.072"
"1.46353","1.06746","43.921","0.0135105","0.0147329","0.0154205","-0.00458074","109.048"
"1.47036","1.06684","44.121","0.0135338","0.0148025","0.0155039","-0.00457988","109.374"
"1.47715","1.07278","44.321","0.013593","0.0148199","0.0155848","-0.00458144","109.026"
"1.48354","1.07392","44.521","0.0136","0.0148573","0.015616","-0.00465448","109.245"
"1.49048","1.07892","44.721","0.013624","0.014858","0.0156345","-0.00465155","109.058"
"1.49678","1.08138","44.921","0.0136754","0.0149015","0.0157492","-0.00468836","108.966"
"1.50347","1.08369","45.121","0.0137514","0.0149663","0.0158068","-0.00468829","108.835"
"1.51035","1.08728","45.321","0.013863","0.0150863","0.0159208","-0.00474351","108.824"
"1.51724","1.09013","45.521","0.0139681","0.0151623","0.0159931","-0.00475156","108.549"
"1.52393","1.09098","45.721","0.0140803","0.0152614","0.016079","-0.00477381","108.388"
"1.53013","1.09819","45.921","0.0141784","0.0153253","0.0161674","-0.00481158","108.089"
"1.53643","1.0988","46.121","0.0142639","0.0154318","0.0161858","-0.00477497","108.188"
"1.54326","1.10346","46.321","0.0142862","0.0154852","0.0162463","-0.00477516","108.393"
"1.5502","1.10788","46.521","0.0142885","0.0155029","0.0162625","-0.00477825","108.499"
"1.55752","1.11139","46.721","0.0143151","0.015572","0.0163269","-0.00485376","108.78"
"1.56353","1.11323","46.921","0.014303","0.0156125","0.0163861","-0.00485379","109.155"
"1.56987","1.11572","47.121","0.0143244","0.0156749","0.0164915","-0.00487434","109.428"
"1.57646","1.11764","47.321","0.0143582","0.0156888","0.0165425","-0.00492813","109.267"
"1.58325","1.12448","47.521","0.0143958","0.0157376","0.016615","-0.00493717","109.321"
"1.59082","1.12752","47.721","0.0144824","0.0158418","0.0166829","-0.00494527","109.387"
"1.59727","1.1313","47.921","0.0146306","0.0159521","0.0167855","-0.00495858","109.032"
"1.60347","1.13122","48.121","0.0147158","0.0160818","0.0168827","-0.00499795","109.283"
"1.60991","1.13499","48.321","0.0147354","0.0159988","0.0167971","-0.00503974","108.574"
"1.61646","1.13705","48.521","0.0148479","0.0160761","0.016895","-0.00503647","108.272"
"1.62388","1.14249","48.721","0.0148621","0.0161304","0.0169012","-0.0050486","108.534"
"1.63057","1.14377","48.921","0.0149356","0.0161732","0.0169932","-0.00506079","108.286"
"1.63735","1.14556","49.121","0.0149801","0.0162452","0.017068","-0.00504782","108.445"
"1.64355","1.15044","49.321","0.0150106","0.0163101","0.0171415","-0.00507932","108.657"
"1.6501","1.15419","49.521","0.0150338","0.0163934","0.0172322","-0.00509828","109.044"
"1.65713","1.15583","49.721","0.0150868","0.0164644","0.0173264","-0.0051193","109.131"
"1.66372","1.15828","49.921","0.0150884","0.0164664","0.0174107","-0.00518203","109.133"
"1.67061","1.16193","50.121","0.0151857","0.0165944","0.0174636","-0.0051852","109.276"
"1.67734","1.16331","50.321","0.0152341","0.016702","0.0175393","-0.00518851","109.636"
"1.68364","1.16981","50.521","0.0153065","0.0167672","0.017566","-0.00522463","109.543"
"1.69062","1.17186","50.721","0.0153755","0.0167837","0.0176046","-0.00527279","109.159"
"1.69683","1.1756","50.921","0.0154181","0.0168585","0.0176459","-0.00531628","109.342"
"1.70347","1.17598","51.121","0.0155156","0.0168761","0.0177155","-0.00531628","108.769"
"1.7104","1.17926","51.321","0.0155613","0.0169115","0.0177257","-0.0053323","108.677"
"1.71729","1.18393","51.521","0.0155868","0.0168809","0.0177537","-0.00534549","108.303"
"1.72407","1.18535","51.721","0.0156305","0.0169362","0.0178079","-0.00538323","108.354"
"1.73027","1.18701","51.921","0.0156828","0.0170102","0.0179339","-0.00530147","108.464"
"1.73657","1.18966","52.121","0.0157314","0.017082","0.0179893","-0.00536379","108.585"
"1.74336","1.19303","52.321","0.0157923","0.0171836","0.0181499","-0.00539464","108.81"
"1.75034","1.19501","52.521","0.0158483","0.0172317","0.0182491","-0.00544534","108.729"
"1.75767","1.1987","52.721","0.015935","0.0173553","0.0182924","-0.00545309","108.913"
"1.76367","1.20029","52.921","0.0159912","0.0174954","0.0183543","-0.00549391","109.406"
"1.76997","1.20475","53.121","0.015998","0.017522","0.0183757","-0.00552852","109.526"
"1.77656","1.20541","53.321","0.0160444","0.0175809","0.0183833","-0.00555559","109.577"
"1.7834","1.20768","53.521","0.0160688","0.0176326","0.0184505","-0.00554667","109.732"
"1.79092","1.21243","53.721","0.0161239","0.0176611","0.0184605","-0.00558484","109.534"
"1.79731","1.21182","53.921","0.016205","0.0176423","0.018494","-0.00557538","108.869"
"1.80352","1.2168","54.121","0.0162896","0.0176708","0.0185797","-0.00561087","108.479"
"1.80991","1.22084","54.321","0.0162876","0.0176988","0.0186069","-0.00561962","108.664"
"1.8165","1.22236","54.521","0.0163346","0.0177223","0.0186989","-0.00562382","108.495"
"1.82388","1.22528","54.721","0.0163967","0.0177837","0.0187875","-0.00564579","108.459"
"1.83062","1.22498","54.921","0.0164874","0.0178907","0.0189285","-0.00565902","108.511"
"1.83735","1.23087","55.121","0.0165668","0.0180142","0.0190368","-0.00568296","108.737"
"1.84351","1.23125","55.321","0.0166778","0.0181088","0.0190995","-0.00568747","108.58"
"1.85005","1.23124","55.521","0.0167353","0.0182104","0.0191423","-0.0057249","108.814"
"1.85708","1.23275","55.721","0.0167663","0.0182871","0.0192161","-0.00573564","109.071"
"1.86362","1.23605","55.921","0.0168287","0.0183378","0.0192674","-0.00578658","108.967"
"1.87046","1.23581","56.121","0.0169221","0.0183882","0.019215","-0.00577472","108.664"
"1.87715","1.23902","56.321","0.0168875","0.0184364","0.0191574","-0.00577851","109.172"
"1.88345","1.24008","56.521","0.0169426","0.0184745","0.0191668","-0.0057847","109.042"
"1.89033","1.23982","56.721","0.0169641","0.0184748","0.0191743","-0.00573995","108.905"
"1.89663","1.24071","56.921","0.017022","0.0185106","0.0191484","-0.00580112","108.745"
"1.90332","1.24298","57.121","0.0170245","0.0185309","0.0191893","-0.00579623","108.848"
"1.91025","1.24167","57.321","0.017042","0.0184858","0.0191947","-0.00578889","108.472"
"1.91719","1.24522","57.521","0.0170892","0.0185166","0.0192776","-0.00581238","108.353"
"1.92397","1.24318","57.721","0.0171486","0.0185503","0.0193708","-0.00579072","108.174"
"1.9252","0.0658819","57.756","0.0171486","0.0185503","0.0193708","-0.00579072","108.174"