File: Raw_Data./Tensile Nozzle 0.4 mm/90 Degrees/LH0.05_90D_N0.4/Test 1.csv
Crosshead ,Crosshead ini,Load ,Load ini,Time ,Strain 1 ,Strain 2 ,Strain 3 ,Strain 4 ,PoissonRatio
0,0.00078125,0,0.0163383,0.116,-1.62E-05,-6.72E-06,-1.19E-05,-2.13E-06,41.4773
0.002197266,0.002294922,-0.00073279,0.0156055,0.216,2.05E-06,-1.59E-05,-5.61E-06,1.02E-05,-775.71
0.005273437,0.004492188,0.00251903,0.0188573,0.316,4.15E-06,4.33E-08,-1.27E-06,7.13E-06,1.04289
0.008300781,0.007568359,0.006230835,0.0225691,0.416,-7.48E-06,4.98E-06,-7.58E-06,-4.80E-07,-66.6521
0.0118164,0.0105957,0.007565018,0.02390329,0.516,-5.06E-06,-1.61E-05,6.75E-07,-4.08E-07,318.865
0.0150391,0.0141113,0.0131647,0.029503,0.616,2.02E-05,-3.56E-05,2.48E-05,2.65E-05,-176.557
0.0186523,0.017334,0.0158232,0.0321615,0.716,5.45E-05,-5.56E-05,5.40E-05,5.38E-05,-101.982
0.0220703,0.0209473,0.0188538,0.035192,0.816,9.57E-05,-7.37E-05,8.69E-05,8.51E-05,-76.9877
0.026123,0.0243652,0.0249594,0.0412976,0.916,0.000121387,-7.37E-05,0.000126499,0.000119869,-60.7021
0.0300781,0.02841797,0.0267646,0.0431028,1.016,0.000171852,-0.000122701,0.000176108,0.000170955,-71.3992
0.0336914,0.032373,0.0319739,0.0483122,1.116,0.000196151,-9.49E-05,0.000194615,0.000188768,-48.3936
0.03720703,0.03598633,0.0345156,0.0508539,1.216,0.000214539,-0.000127431,0.000209686,0.000206214,-59.3976
0.0408203,0.039502,0.0389567,0.0552949,1.316,0.000275038,-0.00015129,0.000277695,0.00025863,-55.0069
0.0444336,0.0431152,0.0400453,0.0563836,1.416,0.000292947,-0.00014719,0.000282457,0.000273323,-50.2446
0.0476074,0.0467285,0.0430756,0.0594139,1.516,0.000309969,-0.000151422,0.000318435,0.000303536,-48.8507
0.0510254,0.0499023,0.0458386,0.0621769,1.616,0.000343082,-0.000134451,0.000344014,0.000335332,-39.1892
0.0544922,0.0533203,0.0461452,0.0624834,1.716,0.000400343,-0.000134451,0.000413914,0.000398567,-33.584
0.05834961,0.05678711,0.0489252,0.0652634,1.816,0.000416873,-0.00012991,0.000421387,0.000409853,-31.163
0.0619141,0.0606445,0.0526237,0.068962,1.916,0.000429643,-0.000123075,0.000438189,0.000430149,-28.6459
0.0655762,0.064209,0.0564127,0.0727509,2.016,0.000494072,-6.61E-05,0.00051012,0.000487597,-13.3863
0.0687988,0.0678711,0.05509716,0.0714354,2.116,0.000520731,-0.000157257,0.000530822,0.000516857,-30.1993
0.0724609,0.0710938,0.0601517,0.07649,2.216,0.000572818,-3.59E-05,0.000587421,0.000567553,-6.27531
0.0760254,0.0747559,0.0622734,0.0786117,2.316,0.000598691,-2.27E-05,0.000620381,0.000588726,-3.79525
0.0796875,0.0783203,0.0616343,0.07797258,2.416,0.000659905,-3.62E-05,0.000677195,0.00065473,-5.48324
0.0828613,0.08198242,0.070636,0.0869743,2.516,0.000682467,-3.07E-05,0.000706669,0.000677224,-4.50239
0.0862793,0.0851563,0.0665502,0.0828885,2.616,0.000717805,-2.87E-05,0.000730158,0.000713427,-4.00217
0.08950195,0.0885742,0.0689629,0.0853012,2.716,0.000736779,-2.15E-05,0.000755132,0.000726349,-2.91435
0.0931641,0.0917969,0.0706811,0.0870194,2.816,0.000817132,-3.06E-05,0.000841948,0.000812686,-3.74364
0.0967285,0.095459,0.0755386,0.0918768,2.916,0.000877224,-3.68E-05,0.000888791,0.000865456,-4.19221
0.0999512,0.09902344,0.0787935,0.0951318,3.016,0.000908079,-4.42E-05,0.000917142,0.000886248,-4.86405
0.103027,0.102246,0.0797459,0.0960842,3.116,0.00093247,-5.47E-05,0.000995392,0.000966508,-5.86109
0.106543,0.105322,0.0796619,0.0960001,3.216,0.00101332,-2.90E-05,0.00102869,0.00100165,-2.86196
0.110107,0.108838,0.0849934,0.101332,3.316,0.00103051,-2.23E-05,0.00105036,0.00101851,-2.15932
0.113721,0.112402,0.0863509,0.102689,3.416,0.00107258,-5.35E-05,0.0010887,0.00106176,-4.98613
0.117334,0.116016,0.0880788,0.104417,3.516,0.00110837,-5.13E-05,0.0011396,0.00110746,-4.6311
0.120801,0.119629,0.0905589,0.106897,3.616,0.00114345,-7.22E-05,0.00117448,0.0011445,-6.31343
0.124365,0.123096,0.0937772,0.110116,3.716,0.00116831,-0.000104315,0.00120292,0.00116677,-8.92871
0.127783,0.12666,0.0992171,0.115555,3.816,0.00118864,-8.25E-05,0.00126436,0.00122728,-6.94032
0.13125,0.130078,0.09785643,0.114195,3.916,0.00123586,-0.000110508,0.00128958,0.00124725,-8.94179
0.13418,0.133545,0.0999933,0.116332,4.016,0.00125549,-8.78E-05,0.00130585,0.00126562,-6.99237
0.137402,0.136475,0.103609,0.119948,4.116,0.00129798,-6.81E-05,0.00136534,0.00130673,-5.25005
0.140576,0.139697,0.105435,0.121774,4.216,0.00133946,-7.59E-05,0.00139653,0.00134354,-5.66338
0.144043,0.142871,0.102763,0.119101,4.316,0.00136841,-0.000111737,0.00143209,0.00138039,-8.16546
0.147461,0.146338,0.108069,0.124408,4.416,0.00139084,-0.000120147,0.00145212,0.00138858,-8.63845
0.151074,0.149756,0.109045,0.125383,4.516,0.00140427,-0.000120147,0.00149954,0.00142745,-8.55583
0.154541,0.153369,0.112065,0.128403,4.616,0.00146991,-0.000145051,0.00154177,0.00146957,-9.86802
0.158447,0.156836,0.114798,0.131137,4.716,0.00146991,-0.000145051,0.00154177,0.00146957,-9.86802
0.161963,0.160742,0.116065,0.132403,4.816,0.00154552,-0.000129382,0.00162141,0.00156109,-8.37142
0.165332,0.164258,0.120166,0.136505,4.916,0.00157778,-0.000148334,0.00166496,0.00158659,-9.40144
0.168018,0.167627,0.118554,0.134892,5.016,0.00165879,-0.000129356,0.00174024,0.00166937,-7.79821
0.171143,0.170313,0.121139,0.137477,5.116,0.00168002,-9.81E-05,0.00177158,0.00170572,-5.84201
0.174365,0.173437,0.124103,0.140442,5.216,0.00171023,-9.02E-05,0.00183433,0.00174899,-5.27299
0.177881,0.17666,0.125284,0.141622,5.316,0.00177024,-0.000124584,0.00186444,0.0017812,-7.03769
0.180957,0.180176,0.125508,0.141846,5.416,0.00179681,-0.000114472,0.00188541,0.00180995,-6.37085
0.184326,0.183252,0.129389,0.145728,5.516,0.00183957,-0.000137102,0.00193174,0.00184758,-7.45294
0.187744,0.186621,0.13116,0.147498,5.616,0.00186328,-0.000136804,0.00195334,0.00186717,-7.34211
0.191602,0.190039,0.132421,0.14876,5.716,0.00190894,-0.000129988,0.00201645,0.00192901,-6.80943
0.195361,0.193896,0.134658,0.150997,5.816,0.00194147,-0.000131806,0.00203356,0.00195206,-6.78898
0.198975,0.197656,0.136952,0.153291,5.916,0.00195359,-0.000147615,0.00207062,0.00198507,-7.55609
0.201855,0.20127,0.140615,0.156953,6.016,0.00198689,-4.89E-05,0.00209235,0.00200846,-2.46025
0.205029,0.20415,0.14106,0.157398,6.116,0.00204056,9.97E-07,0.00214143,0.00206264,0.0488431
0.208057,0.207324,0.143865,0.160203,6.216,0.00209445,-1.88E-05,0.00219585,0.00209627,-0.898288
0.211426,0.210352,0.146575,0.162913,6.316,0.00210112,-3.45E-05,0.00219042,0.0021007,-1.64065
0.214453,0.213721,0.1465,0.162838,6.416,0.00214402,-9.37E-06,0.00225918,0.00216202,-0.43714
0.217822,0.216748,0.145107,0.161445,6.516,0.00217003,-3.52E-05,0.00229056,0.00218069,-1.62388
0.220996,0.220117,0.148546,0.164884,6.616,0.00220286,-1.39E-05,0.00233611,0.00221823,-0.631588
0.224658,0.223291,0.152863,0.169201,6.716,0.00224141,-2.72E-05,0.00235567,0.00223665,-1.21521
0.22832,0.226953,0.153709,0.170047,6.816,0.00224141,-2.72E-05,0.00235567,0.00223665,-1.21521
0.231982,0.230615,0.154815,0.171153,6.916,0.00233021,-1.91E-05,0.00244861,0.00232752,-0.820853
0.235059,0.234277,0.160127,0.176465,7.016,0.00235992,-2.17E-05,0.00246629,0.00235448,-0.921256
0.238525,0.237354,0.158762,0.175101,7.116,0.00241502,2.53E-05,0.00252757,0.00240722,1.04559
0.241748,0.24082,0.160291,0.17663,7.216,0.0024755,-3.92E-05,0.0025845,0.00246094,-1.58191
0.245068,0.244043,0.160804,0.177142,7.316,0.00250412,-5.03E-05,0.0026371,0.00251358,-2.00891
0.2479,0.247363,0.166276,0.182614,7.416,0.00253832,-8.97E-05,0.00265497,0.00251663,-3.53278
0.251123,0.250195,0.167458,0.183796,7.516,0.00256302,-9.28E-05,0.00266734,0.00254373,-3.61957
0.254346,0.253418,0.169676,0.186014,7.616,0.00262123,-6.27E-05,0.00273628,0.00261596,-2.39027
0.257959,0.256641,0.169931,0.186269,7.716,0.00264847,-7.07E-05,0.00275805,0.00265009,-2.67071
0.261328,0.260254,0.171168,0.187507,7.816,0.00270285,-7.43E-05,0.00281858,0.00271187,-2.74741
0.264746,0.263623,0.174054,0.190392,7.916,0.00276199,-9.63E-05,0.00286359,0.00275552,-3.48782
0.267871,0.267041,0.173121,0.189459,8.016,0.00278615,-7.81E-05,0.00291376,0.00280346,-2.80377
0.271338,0.270166,0.177336,0.193674,8.116,0.00283289,-8.96E-05,0.00293647,0.00282297,-3.16174
0.274707,0.273633,0.179246,0.195584,8.216,0.00284813,-7.35E-05,0.00295419,0.00284219,-2.579
0.278369,0.277002,0.1805,0.196838,8.316,0.00290556,-0.000107277,0.00301739,0.0029046,-3.69213
0.281494,0.280664,0.182554,0.198893,8.416,0.0029286,-0.000100908,0.00303295,0.00292739,-3.44561
0.284814,0.283789,0.182974,0.199312,8.516,0.00296877,-9.47E-05,0.00308398,0.00296,-3.1899
0.287891,0.287109,0.186268,0.202606,8.616,0.0029879,-0.000115941,0.0031025,0.00298489,-3.88035
0.291455,0.290186,0.184007,0.200345,8.716,0.00303046,-0.000123681,0.0031691,0.00302665,-4.08126
0.294824,0.29375,0.188476,0.204815,8.816,0.0030451,-0.000104041,0.0031691,0.00302665,-3.41667
0.298291,0.297119,0.187186,0.203524,8.916,0.00307935,-0.000123197,0.00321081,0.00306229,-4.00075
0.301172,0.300586,0.190277,0.206615,9.016,0.0031303,-0.000112679,0.00327658,0.003128,-3.59962
0.304443,0.303467,0.192394,0.208732,9.116,0.00316252,-0.000122869,0.00329688,0.0031563,-3.88516
0.307764,0.306738,0.191843,0.208181,9.216,0.00321476,-0.0001195,0.00335646,0.00320666,-3.71723
0.311426,0.310059,0.2,0.216338,9.316,0.00323765,-0.000122791,0.00337957,0.00321371,-3.7926
0.314746,0.313721,0.1994897,0.215828,9.416,0.00327636,-0.000127548,0.00344455,0.00329532,-3.89298
0.318408,0.317041,0.199541,0.215879,9.516,0.00332074,-1.56E-05,0.0034723,0.00330402,-0.470799
0.321631,0.320703,0.201121,0.217459,9.616,0.00333893,-0.000122618,0.00348646,0.00332291,-3.67237
0.325195,0.323926,0.197541,0.213879,9.716,0.00339527,2.20E-06,0.00355182,0.00339936,0.0646714
0.328369,0.32749,0.202689,0.219027,9.816,0.00341698,4.44E-07,0.00357875,0.00343356,0.01299908
0.331738,0.330664,0.204749,0.221088,9.916,0.00346381,2.33E-05,0.00362676,0.00348422,0.673764
0.33457,0.334033,0.205906,0.222245,10.016,0.00348967,2.88E-05,0.00365208,0.0034985,0.826428
0.337793,0.336865,0.206264,0.222602,10.116,0.00350723,3.68E-05,0.00369518,0.00351248,1.04969
0.340869,0.340088,0.210314,0.226653,10.216,0.00353234,-2.88E-06,0.00369922,0.00355196,-0.0815556
0.344336,0.343164,0.21128,0.227618,10.316,0.0035306,-4.07E-05,0.00370414,0.00356438,-1.15219
0.347705,0.346631,0.210785,0.227123,10.416,0.0035634,-2.50E-05,0.00373712,0.00358898,-0.702832
0.351318,0.35,0.210153,0.226491,10.516,0.00358986,-1.46E-06,0.00377065,0.00363205,-0.0406339
0.354639,0.353613,0.213341,0.229679,10.616,0.00362543,-3.17E-05,0.00380538,0.00365448,-0.874572
0.358496,0.356934,0.218061,0.234399,10.716,0.00363605,-3.10E-05,0.00382839,0.00366158,-0.851284
0.361963,0.360791,0.216121,0.23246,10.816,0.00366279,-5.45E-05,0.0038505,0.00368053,-1.48897
0.365332,0.364258,0.220021,0.236359,10.916,0.00370673,-4.91E-05,0.00390078,0.00372579,-1.32375
0.367969,0.367627,0.2219,0.238238,11.016,0.00373158,-6.33E-05,0.00391896,0.00374161,-1.69552
0.371094,0.370264,0.220456,0.236794,11.116,0.00376391,-4.96E-05,0.00396104,0.00378079,-1.3177
0.374316,0.373389,0.221915,0.238253,11.216,0.00380835,-7.55E-05,0.00399425,0.00380383,-1.98194
0.377832,0.376611,0.221994,0.238333,11.316,0.00384321,-7.92E-05,0.00402956,0.00383556,-2.06181
0.3809082,0.380127,0.223134,0.239472,11.416,0.00385639,-7.49E-05,0.00404488,0.00385534,-1.9434
0.384277,0.383203,0.223253,0.239592,11.516,0.00388509,-9.21E-05,0.00409323,0.00388412,-2.36949
0.387646,0.386572,0.225794,0.242132,11.616,0.00394552,-9.79E-05,0.0041331,0.00394596,-2.48203
0.391504,0.389941,0.22817,0.244508,11.716,0.00395935,-0.000105069,0.00414415,0.00395433,-2.65369
0.395264,0.393799,0.229804,0.246142,11.816,0.00398882,-0.000134104,0.00418056,0.00401347,-3.362
0.398877,0.397559,0.2297202,0.246058,11.916,0.00402548,-0.000129659,0.00420226,0.00404034,-3.22096
0.401709,0.401172,0.232139,0.248477,12.016,0.00409928,-8.91E-05,0.00428196,0.00412446,-2.17458
0.404932,0.404004,0.232249,0.248587,12.116,0.00412697,-7.87E-05,0.00430534,0.00414539,-1.90737
0.408008,0.407227,0.234533,0.250871,12.216,0.00415048,-8.32E-05,0.00432983,0.00416873,-2.00504
0.411328,0.410303,0.231999,0.248337,12.316,0.00418384,-0.000125469,0.00436217,0.00423204,-2.9989
0.414404,0.413623,0.233152,0.24949,12.416,0.00419657,-0.000122043,0.00437661,0.0042515,-2.90816
0.417725,0.416699,0.234905,0.251243,12.516,0.00422819,-7.86E-05,0.00441898,0.00428558,-1.86003
0.420898,0.42002,0.235861,0.252199,12.616,0.0042415,-0.000100687,0.00442894,0.00430699,-2.37385
0.424609,0.423193,0.23472,0.251058,12.716,0.00427366,-8.39E-06,0.00449111,0.00435632,-0.19638
0.42832,0.426904,0.236076,0.252414,12.816,0.00429482,1.11E-05,0.00452649,0.00439294,0.259119
0.431934,0.430615,0.237036,0.253375,12.916,0.00429482,1.11E-05,0.00457163,0.00439294,0.259119
0.43501,0.434229,0.240939,0.257277,13.016,0.00435533,2.85E-05,0.0046012,0.00446401,0.653944
0.438574,0.437305,0.239413,0.255752,13.116,0.00441239,3.63E-05,0.00465396,0.00449569,0.821922
0.441797,0.440869,0.240145,0.256483,13.216,0.00445332,2.80E-05,0.00470298,0.00455114,0.629582
0.445117,0.444092,0.242647,0.258986,13.316,0.00445707,4.31E-05,0.0047191,0.00457797,0.966065
0.447998,0.447412,0.24376,0.260098,13.416,0.00452757,2.10E-05,0.00478694,0.00464602,0.4647261
0.45127,0.450293,0.245066,0.261404,13.516,0.00453612,1.41E-06,0.00480706,0.00466238,0.0311793
0.45459,0.453564,0.244461,0.2608,13.616,0.00455899,-3.87E-07,0.00485221,0.00468929,-0.008491245
0.458301,0.456885,0.244219,0.260557,13.716,0.00459369,-2.17E-06,0.00486987,0.00472066,-0.047183
0.461621,0.460596,0.244496,0.260835,13.816,0.00462718,6.22E-06,0.00489648,0.00476935,0.134372
0.465088,0.463916,0.248125,0.264464,13.916,0.00465878,1.93E-05,0.00494109,0.00480217,0.4136
0.468164,0.467383,0.249152,0.265491,14.016,0.00467717,3.95E-06,0.00495604,0.00481528,0.0844421
0.471729,0.470459,0.247482,0.263821,14.116,0.00471721,-9.99E-06,0.00500654,0.00487423,-0.21171
0.475098,0.474023,0.249311,0.26565,14.216,0.00473236,-1.40E-05,0.00502075,0.0049052,-0.295185
0.478711,0.477393,0.249532,0.26587,14.316,0.00474342,-2.45E-05,0.00504578,0.004917,-0.515961
0.481738,0.481006,0.249321,0.26566,14.416,0.00477748,-2.47E-05,0.00507273,0.00496233,-0.517392
0.485156,0.484033,0.251693,0.268031,14.516,0.00480405,-1.04E-05,0.00509445,0.00499134,-0.216265
0.488184,0.487451,0.249142,0.26548,14.616,0.00483908,-2.71E-05,0.00513929,0.00502404,-0.559005
0.491699,0.490479,0.251752,0.26809,14.716,0.00485774,-1.43E-06,0.00514923,0.00504269,-0.0294378
0.495068,0.493994,0.250055,0.266393,14.816,0.00487216,-2.25E-05,0.00518045,0.00505743,-0.461134
0.495068,,0,0,,,,,,
,,,,,,,,,
,,,,,,,,,
,,,,,,,,,
,,,,,,,,,
,,,,,,,,,
,,,,,,,,,
,,,,,,,,,
,,,,,,,,,
,,,,,,,,,
,,,,,,,,,
,,,,,,,,,
,,,,,,,,,
,,,,,,,,,
,,,,,,,,,
,,,,,,,,,
,,,,,,,,,
,,,,,,,,,
,,,,,,,,,
,,,,,,,,,
,,,,,,,,,
,,,,,,,,,
,,,,,,,,,
,,,,,,,,,
,,,,,,,,,
,,,,,,,,,
,,,,,,,,,
,,,,,,,,,
,,,,,,,,,
,,,,,,,,,
,,,,,,,,,
,,,,,,,,,
,,,,,,,,,
,,,,,,,,,
,,,,,,,,,
,,,,,,,,,
,,,,,,,,,
,,,,,,,,,
,,,,,,,,,
,,,,,,,,,
,,,,,,,,,
,,,,,,,,,
,,,,,,,,,
,,,,,,,,,
,,,,,,,,,
,,,,,,,,,
,,,,,,,,,
,,,,,,,,,
,,,,,,,,,
,,,,,,,,,
,,,,,,,,,
,,,,,,,,,
,,,,,,,,,
,,,,,,,,,
,,,,,,,,,
,,,,,,,,,
,,,,,,,,,
,,,,,,,,,
,,,,,,,,,
,,,,,,,,,
,,,,,,,,,
,,,,,,,,,
,,,,,,,,,
,,,,,,,,,
,,,,,,,,,
,,,,,,,,,
,,,,,,,,,
,,,,,,,,,
,,,,,,,,,
,,,,,,,,,
,,,,,,,,,
,,,,,,,,,
,,,,,,,,,
,,,,,,,,,
,,,,,,,,,
,,,,,,,,,
,,,,,,,,,
,,,,,,,,,
,,,,,,,,,
,,,,,,,,,
,,,,,,,,,
,,,,,,,,,
,,,,,,,,,
,,,,,,,,,
,,,,,,,,,
,,,,,,,,,
,,,,,,,,,
,,,,,,,,,
,,,,,,,,,
,,,,,,,,,
,,,,,,,,,
,,,,,,,,,
,,,,,,,,,
,,,,,,,,,
,,,,,,,,,
,,,,,,,,,
,,,,,,,,,
,,,,,,,,,
,,,,,,,,,
,,,,,,,,,
,,,,,,,,,
,,,,,,,,,
,,,,,,,,,