File: Raw_Data./Tensile Nozzle 0.4 mm/90 Degrees/LH0.1_90D_N0.4/Test Run 4 05-19-21 11 10 37 AM/DAQ- Crosshead, … - (Timed).csv
"File Path: G:\TT\9\Test Run 4 05-19-21 11 10 37 AM\DAQ- Crosshead, … - (Timed).csv   "
"Test: Robin_Tension_4_DIC_Signals 9"
"Test Run: Test Run 4"
"Date: 18/05/2021 15:29:47"
""
""
"Crosshead ","Load ","Time ","Strain 1 ","Strain 2 ","Strain 3 ","Strain 4 ","PoissonRatio "
"mm","kN","sec","mm/mm","mm/mm","mm/mm","mm/mm","%"
"0.000878906","-0.0499677","0.116","1.9579e-05","6.02705e-05","4.96847e-06","-5.71142e-06","307.832"
"0.00249023","-0.0478607","0.216","2.03348e-05","2.52013e-06","3.71276e-06","-5.02941e-06","12.3932"
"0.00478516","-0.0482547","0.316","2.8409e-05","3.01374e-05","2.25759e-06","4.56742e-07","106.084"
"0.00786133","-0.0430083","0.416","2.5399e-05","2.90436e-05","2.18802e-05","6.17636e-06","114.349"
"0.0108887","-0.0384641","0.516","5.15701e-05","2.88704e-05","2.67391e-05","1.20278e-05","55.9828"
"0.0143555","-0.0332643","0.616","7.94979e-05","5.72882e-06","6.13659e-05","5.23317e-05","7.20625"
"0.0175781","-0.0298104","0.716","9.53068e-05","8.5884e-06","7.82434e-05","6.02104e-05","9.01132"
"0.0211914","-0.0234284","0.816","0.000116669","-1.88249e-06","0.000108604","9.86025e-05","-1.61353"
"0.0245605","-0.0200647","0.916","0.000132988","-1.06486e-05","0.000120028","0.00011168","-8.00719"
"0.0286133","-0.017641","1.016","0.000205534","-2.54115e-05","0.000168416","0.000147064","-12.3636"
"0.0325195","-0.0112149","1.116","0.000220054","-3.17248e-05","0.000215708","0.000201681","-14.4168"
"0.0360352","-0.00497807","1.216","0.000266911","-5.49813e-05","0.000239056","0.000230461","-20.5991"
"0.0395996","-0.00250803","1.316","0.000303063","-5.17167e-05","0.00029703","0.000285024","-17.0647"
"0.0431641","0.00525046","1.416","0.000314114","-8.79667e-05","0.000301308","0.000299766","-28.0047"
"0.0467285","0.00534995","1.516","0.000338062","-9.31156e-05","0.000323793","0.000317482","-27.5439"
"0.0499023","0.0075037","1.616","0.000362531","-0.000101887","0.000350582","0.000337214","-28.1044"
"0.0532715","0.017308","1.716","0.000399761","-0.000128216","0.000381914","0.000366198","-32.0732"
"0.0567383","0.017658","1.816","0.000414254","-0.000107361","0.000411065","0.000384043","-25.9167"
"0.0605957","0.0257343","1.916","0.000440545","-0.00012645","0.000412633","0.000401072","-28.7031"
"0.064209","0.0269769","2.016","0.000455542","-0.000122977","0.000435805","0.000412396","-26.9958"
"0.0678711","0.0310534","2.116","0.000494217","-7.81493e-05","0.000482573","0.000464751","-15.8128"
"0.0710449","0.0355598","2.216","0.000536396","-8.88373e-05","0.000522445","0.000515266","-16.5619"
"0.074707","0.0422894","2.316","0.000565545","-8.53914e-05","0.000550444","0.000536588","-15.099"
"0.0782715","0.0462678","2.416","0.000619669","-9.54648e-05","0.000565988","0.000555079","-15.4058"
"0.0819336","0.0496638","2.516","0.000647963","-9.22898e-05","0.000625026","0.000615833","-14.2431"
"0.0851074","0.0545363","2.616","0.000680863","-8.69561e-05","0.000648802","0.000634092","-12.7715"
"0.0884766","0.0582354","2.716","0.000721307","-0.000100917","0.000693056","0.000681162","-13.9909"
"0.0916992","0.0636042","2.816","0.000767612","-0.000101356","0.000749367","0.000729897","-13.2041"
"0.0954102","0.0648814","2.916","0.000820564","-0.000119643","0.00079067","0.000773534","-14.5806"
"0.0989746","0.0726996","3.016","0.000845667","-0.000115406","0.000815374","0.000788257","-13.6467"
"0.102197","0.0756125","3.116","0.000896018","-0.000134741","0.000835641","0.000810167","-15.0378"
"0.105225","0.0784934","3.216","0.000936958","-0.000148204","0.000912688","0.000891221","-15.8176"
"0.108789","0.0834452","3.316","0.000969366","-0.000162279","0.00091877","0.000907164","-16.7407"
"0.112402","0.0888166","3.416","0.000984191","-0.000154037","0.000962492","0.000942395","-15.6511"
"0.115967","0.0935684","3.516","0.00100207","-0.00018959","0.000987663","0.000966448","-18.9198"
"0.11958","0.095357","3.616","0.000964615","-0.000215426","0.000981242","0.0010003","-22.3328"
"0.123047","0.0994021","3.716","0.000981972","-0.000216062","0.000995438","0.00101818","-22.0029"
"0.126611","0.103506","3.816","0.00101291","-0.000221335","0.00101251","0.00102288","-21.8514"
"0.130029","0.108964","3.916","0.00103844","-0.000217655","0.00106215","0.0010894","-20.9598"
"0.133447","0.111473","4.016","0.00109345","-0.000202484","0.00109274","0.00111146","-18.5179"
"0.136426","0.117227","4.116","0.00110261","-0.000279888","0.00110415","0.00111275","-25.3841"
"0.139648","0.119553","4.216","0.00110261","-0.000279888","0.00110415","0.00111275","-25.3841"
"0.142822","0.122743","4.316","0.00116006","-0.000227386","0.00117117","0.001181","-19.6012"
"0.146289","0.12631","4.416","0.00116966","-0.000216709","0.00117583","0.00118277","-18.5275"
"0.149707","0.131577","4.516","0.00118879","-0.000284135","0.00118139","0.00119448","-23.9012"
"0.153271","0.132783","4.616","0.00120631","-0.000301262","0.00121261","0.00123073","-24.9738"
"0.156787","0.138486","4.716","0.00127794","-0.000316471","0.00126799","0.00127465","-24.7642"
"0.160645","0.143198","4.816","0.0013096","-0.000288999","0.00130549","0.00131268","-22.0677"
"0.164209","0.148788","4.916","0.00132853","-0.00027572","0.00131921","0.00132649","-20.7538"
"0.167578","0.151433","5.016","0.00139552","-0.000329634","0.00137418","0.00138468","-23.6209"
"0.170313","0.157618","5.116","0.00140622","-0.000346686","0.00139412","0.00140321","-24.6538"
"0.173437","0.160401","5.216","0.00144366","-0.000323619","0.00140596","0.00141819","-22.4166"
"0.176611","0.165568","5.316","0.00145354","-0.000328862","0.0014534","0.00146521","-22.6249"
"0.180127","0.166458","5.416","0.00151135","-0.00034788","0.00148051","0.00149041","-23.0178"
"0.183203","0.169921","5.516","0.00152526","-0.00035434","0.00152697","0.00153627","-23.2314"
"0.186572","0.176874","5.616","0.00155059","-0.000294523","0.00154945","0.0015608","-18.9943"
"0.18999","0.177998","5.716","0.00163069","-0.000260922","0.00162148","0.00162278","-16.0007"
"0.193848","0.184452","5.816","0.0016539","-0.000256136","0.00163662","0.00164136","-15.4868"
"0.197656","0.186043","5.916","0.00168104","-0.000259203","0.00165348","0.00165405","-15.4192"
"0.20127","0.191287","6.016","0.0016933","-0.000318856","0.00169258","0.00170103","-18.8304"
"0.204102","0.197609","6.116","0.00175277","-0.000351763","0.00172039","0.00172609","-20.069"
"0.207324","0.200498","6.216","0.00175277","-0.000339385","0.00175004","0.00176483","-19.3628"
"0.210303","0.203572","6.316","0.0017907","-0.000339385","0.00175004","0.00176483","-18.9526"
"0.213672","0.207375","6.416","0.00180675","-0.000312793","0.00180989","0.00182424","-17.3125"
"0.216748","0.2137","6.516","0.00184483","-0.000320735","0.0018442","0.00184898","-17.3856"
"0.220117","0.215062","6.616","0.00187843","-0.000296488","0.00187119","0.00188184","-15.7838"
"0.223242","0.219689","6.716","0.00189557","-0.000346343","0.00190509","0.00192558","-18.2712"
"0.226904","0.222914","6.816","0.00194263","-0.000383592","0.00192573","0.00195082","-19.746"
"0.230615","0.227325","6.916","0.00195969","-0.000422696","0.00194698","0.00195312","-21.5695"
"0.234229","0.228768","7.016","0.00198416","-0.000463061","0.00195208","0.00196503","-23.3379"
"0.237305","0.233203","7.116","0.0019848","-0.000444711","0.00197158","0.00198412","-22.4058"
"0.240771","0.236645","7.216","0.0020217","-0.000403548","0.00201697","0.00202836","-19.9608"
"0.243994","0.24299","7.316","0.0020759","-0.000415543","0.00204156","0.00204566","-20.0175"
"0.247314","0.245772","7.416","0.00210887","-0.000398953","0.00208208","0.00209074","-18.9179"
"0.250146","0.247333","7.516","0.0021504","-0.000417778","0.00211163","0.00212183","-19.4279"
"0.253369","0.251151","7.616","0.00219396","-0.000419671","0.00217181","0.00218677","-19.1285"
"0.256592","0.255988","7.716","0.00222002","-0.000428784","0.00219567","0.00220381","-19.3144"
"0.260205","0.261288","7.816","0.00227275","-0.000429462","0.00224049","0.00224328","-18.8961"
"0.263574","0.262862","7.916","0.00228525","-0.000436724","0.002262","0.00226334","-19.1106"
"0.267041","0.265278","8.016","0.00234702","-0.000432858","0.00230025","0.00230596","-18.4429"
"0.270117","0.26653","8.116","0.00236991","-0.000444982","0.00234406","0.00234461","-18.7763"
"0.273584","0.271993","8.216","0.00238634","-0.000452197","0.00235747","0.00236104","-18.9494"
"0.277002","0.275592","8.316","0.00244936","-0.000445716","0.00242802","0.00242969","-18.1972"
"0.280664","0.280074","8.416","0.00246246","-0.00047738","0.00244341","0.00244367","-19.3863"
"0.28374","0.284914","8.516","0.00250247","-0.000504752","0.00249048","0.00250125","-20.1702"
"0.287061","0.288881","8.616","0.00251811","-0.000477759","0.00251213","0.00252694","-18.9729"
"0.290186","0.289969","8.716","0.0025611","-0.000494633","0.00254186","0.00254514","-19.3133"
"0.293701","0.295009","8.816","0.00257946","-0.000514131","0.00258853","0.00260352","-19.9317"
"0.297119","0.297695","8.916","0.00262655","-0.000515957","0.00261008","0.00262021","-19.6439"
"0.300586","0.299855","9.016","0.00264398","-0.000490815","0.0026507","0.00266704","-18.5635"
"0.303418","0.302021","9.116","0.00268631","-0.000498124","0.00267969","0.00270455","-18.5431"
"0.306738","0.307036","9.216","0.00272282","-0.000471103","0.00271632","0.00273899","-17.302"
"0.310059","0.309629","9.316","0.00273525","-0.000472712","0.00273439","0.00275606","-17.2822"
"0.313672","0.314382","9.416","0.00278396","-0.000456874","0.00275858","0.00276898","-16.4109"
"0.317041","0.318991","9.516","0.00279801","-0.000461963","0.00280226","0.00282256","-16.5104"
"0.320654","0.320176","9.616","0.00283985","-0.000472369","0.00282197","0.00284022","-16.6336"
"0.323926","0.32488","9.716","0.00286138","-0.000503642","0.00285221","0.00288049","-17.6014"
"0.327441","0.326764","9.816","0.00291209","-0.000491268","0.00289604","0.00292044","-16.8699"
"0.330664","0.333876","9.916","0.0029637","-0.000491594","0.00294884","0.00297169","-16.5872"
"0.333984","0.336194","10.016","0.00298177","-0.000515901","0.00296877","0.00299284","-17.3018"
"0.336865","0.338395","10.116","0.00305428","-0.000501031","0.00299403","0.00301361","-16.4042"
"0.340088","0.340587","10.216","0.00307314","-0.000495451","0.00306193","0.00307437","-16.122"
"0.343164","0.344535","10.316","0.00311468","-0.000495451","0.00306193","0.00307437","-15.907"
"0.346631","0.34823","10.416","0.00313658","-0.000525737","0.00311673","0.00313474","-16.7615"
"0.35","0.349525","10.516","0.00315367","-0.000546796","0.0031464","0.00316685","-17.3384"
"0.353564","0.35385","10.616","0.00321764","-0.000535161","0.00320293","0.00321691","-16.6321"
"0.356934","0.355296","10.716","0.00322603","-0.000529843","0.00321186","0.00323624","-16.424"
"0.360791","0.360649","10.816","0.0032748","-0.000540809","0.00323885","0.00326367","-16.5143"
"0.364258","0.36705","10.916","0.00330987","-0.000555477","0.00330881","0.00333588","-16.7824"
"0.367627","0.369498","11.016","0.00332922","-0.000553763","0.00332274","0.00333952","-16.6334"
"0.370264","0.369922","11.116","0.00334513","-0.000572755","0.00333746","0.00336051","-17.1221"
"0.373389","0.371877","11.216","0.00336934","-0.000554795","0.0033729","0.0034046","-16.466"
"0.376611","0.379267","11.316","0.00341073","-0.000551184","0.00341729","0.00342988","-16.1603"
"0.380127","0.37922","11.416","0.0034241","-0.000562974","0.00342019","0.00344141","-16.4415"
"0.383203","0.384731","11.516","0.00342194","-0.000582368","0.00343066","0.0034434","-17.0187"
"0.386572","0.384213","11.616","0.0034844","-0.000616951","0.00348345","0.00349517","-17.7061"
"0.38999","0.391165","11.716","0.00353543","-0.000631331","0.00351475","0.00353181","-17.8573"
"0.393848","0.391543","11.816","0.00355279","-0.000635406","0.00354424","0.0035467","-17.8847"
"0.397607","0.394397","11.916","0.00360473","-0.000628224","0.00355102","0.00355753","-17.6054"
"0.401221","0.396654","12.016","0.00362905","-0.000606201","0.00362585","0.00362438","-16.7041"
"0.404053","0.401972","12.116","0.00366318","-0.000605646","0.00364295","0.003659","-16.5333"
"0.407227","0.401483","12.216","0.00371775","-0.000583599","0.00367578","0.0036785","-15.6976"
"0.410303","0.40442","12.316","0.00371775","-0.000578749","0.0036918","0.00369925","-15.5672"
"0.413672","0.406043","12.416","0.0038056","-0.000623286","0.00374731","0.00375185","-16.3781"
"0.416699","0.41108","12.516","0.00383177","-0.000588108","0.0037945","0.00379568","-15.3482"
"0.420068","0.41245","12.616","0.00386119","-0.000628794","0.00382184","0.00383355","-16.285"
"0.423242","0.413955","12.716","0.0039225","-0.000584563","0.00387473","0.00387797","-14.9028"
"0.426953","0.41951","12.816","0.00392156","-0.000595882","0.00387617","0.00387106","-15.195"
"0.430615","0.423926","12.916","0.00393085","-0.00057647","0.00387044","0.0038752","-14.6653"
"0.434229","0.422872","13.016","0.00397611","-0.000584207","0.00392681","0.0039213","-14.6929"
"0.437305","0.427213","13.116","0.00406785","-0.000545342","0.0039997","0.00399169","-13.4061"
"0.44082","0.430624","13.216","0.00408649","-0.00054192","0.00405616","0.00405189","-13.2613"
"0.444092","0.432618","13.316","0.00410195","-0.0005583","0.00407222","0.00407215","-13.6106"
"0.447412","0.433997","13.416","0.00412822","-0.000615721","0.00412094","0.00412938","-14.9149"
"0.450244","0.4396","13.516","0.00414039","-0.000590852","0.00413594","0.00414393","-14.2704"
"0.453564","0.441546","13.616","0.00417946","-0.0005701","0.00416297","0.00416269","-13.6405"
"0.456836","0.443633","13.716","0.00419823","-0.000561922","0.0041935","0.0042005","-13.3847"
"0.460547","0.444236","13.816","0.00423788","-0.000561943","0.00421355","0.00419383","-13.26"
"0.463867","0.446375","13.916","0.00425933","-0.000588018","0.00424261","0.00422453","-13.8054"
"0.465381","0.027587","13.959","0.00430513","-0.000588018","0.00424261","0.00422453","-13.6585"