File: Raw_Data./Tensile Nozzle 0.4 mm/0 Degrees/LH0.05_0D_N0.4/Test 1.csv
Crosshead ,Crosshead ini,Load ,Load ini,Time ,Strain 1 ,Strain 2 ,Strain 3 ,Strain 4 ,PoissonRatio ,,,
0,0.000341797,0,0.0256091,0.113,-0.000266158,-0.000279353,-0.000290072,-7.36E-05,104.958,-0.000341797,0.000341797,-0.0256091
0.006445312,0.006787109,0.008398136,0.0340073,0.413,-0.000262254,-0.000274709,-0.000295639,-0.000110607,104.749,-0.000341797,-0.001611027,-0.0256091
0.0162598,0.0166016,0.0178732,0.0434823,0.713,-0.000110395,-0.000156994,-0.000132435,-0.000125155,142.211,-0.000341797,-0.001271652,-0.0256091
0.0279785,0.0283203,0.0290289,0.054638,1.013,1.94E-05,3.94E-05,1.31E-05,-0.000179058,202.694,-0.000341797,-0.000708539,-0.0256091
0.0387695,0.0391113,0.04294257,0.0685517,1.313,0.000230204,0.00018516,0.000232108,-0.000235634,80.433,-0.000341797,-0.003831242,-0.0256091
0.0489746,0.0493164,0.0518074,0.0774165,1.613,0.000351625,0.000323013,0.000351213,-0.000243873,91.8629,-0.000341797,-0.002490946,-0.0256091
0.0601562,0.060498,0.0630484,0.0886575,1.913,0.000457115,0.000460953,0.000446832,-0.000297638,100.84,-0.000341797,-0.002550306,-0.0256091
0.0707031,0.0710449,0.0760898,0.101699,2.213,0.000612991,0.000614038,0.000601711,-0.000169669,100.171,-0.000341797,-0.00504487,-0.0256091
0.0811523,0.0814941,0.0838212,0.10943,2.513,0.000828172,0.000848129,0.000829465,-0.000224541,102.41,-0.000341797,-0.002327086,-0.0256091
0.09169922,0.092041,0.0964374,0.122047,2.813,0.00100286,0.00100104,0.00101926,-0.000264857,99.8185,-0.000341797,-0.004396357,-0.0256091
0.101611,0.101953,0.106733,0.132342,3.113,0.00116958,0.00117908,0.00119309,-0.000352535,100.812,-0.000341797,-0.004780169,-0.0256091
0.112451,0.112793,0.120606,0.146215,3.413,0.00132729,0.00130056,0.00132235,-0.000389081,97.9861,-0.000341797,-0.007813309,-0.0256091
0.122852,0.123193,0.129423,0.155032,3.713,0.00140366,0.00143977,0.0014275,-0.000434591,102.573,-0.000341797,-0.006229865,-0.0256091
0.132471,0.132813,0.141054,0.166663,4.013,0.00146598,0.00148221,0.001481,-0.000486126,101.107,-0.000341797,-0.008241162,-0.0256091
0.142578,0.14292,0.151492,0.177101,4.313,0.00151363,0.00153736,0.00154161,-0.000506865,101.568,-0.000341797,-0.008571938,-0.0256091
0.153564,0.153906,0.162382,0.187991,4.613,0.00161537,0.00163878,0.00164267,-0.000557718,101.449,-0.000341797,-0.008475422,-0.0256091
0.163232,0.163574,0.170573,0.196182,4.913,0.00180996,0.00179857,0.00180805,-0.000475301,99.3707,-0.000341797,-0.00699884,-0.0256091
0.173096,0.173437,0.181208,0.206817,5.213,0.00196114,0.00198203,0.00193749,-0.000541215,101.065,-0.000341797,-0.007770546,-0.0256091
0.182959,0.183301,0.194864,0.220473,5.513,0.00218374,0.00215127,0.00220664,-0.000562201,98.5131,-0.000341797,-0.0115629,-0.0256091
0.194189,0.194531,0.205167,0.230776,5.813,0.00236902,0.00239173,0.00239848,-0.000585707,100.959,-0.000341797,-0.0106361,-0.0256091
0.203223,0.203564,0.213364,0.238973,6.113,0.00243262,0.0024825,0.00250796,-0.000673722,102.05,-0.000341797,-0.009799423,-0.0256091
0.212939,0.213281,0.221375,0.246984,6.413,0.00252682,0.00253941,0.00257918,-0.00064244,100.498,-0.000341797,-0.008094119,-0.0256091
0.223437,0.223779,0.232395,0.258005,6.713,0.00252671,0.00259036,0.00259463,-0.000798422,102.519,-0.000341797,-0.008616126,-0.0256091
0.233643,0.233984,0.243043,0.268652,7.013,0.00257473,0.00261597,0.0026199,-0.000810237,101.602,-0.000341797,-0.00905835,-0.0256091
0.243066,0.243408,0.250481,0.27609,7.313,0.00262667,0.00265953,0.0026814,-0.000840656,101.251,-0.000341797,-0.007072336,-0.0256091
0.253174,0.253516,0.263498,0.289107,7.613,0.00283588,0.00283183,0.00288131,-0.000684835,99.8572,-0.000341797,-0.009982687,-0.0256091
0.263086,0.263428,0.276393,0.302002,7.913,0.00297363,0.00300462,0.00299959,-0.000805384,101.042,-0.000341797,-0.0129652,-0.0256091
0.273633,0.273975,0.284649,0.310259,8.213,0.00313192,0.00310666,0.00318476,-0.000852108,99.1935,-0.000341797,-0.0106748,-0.0256091
0.283105,0.283447,0.295054,0.320663,8.513,0.00325803,0.00323317,0.00326195,-0.000886039,99.237,-0.000341797,-0.0116068,-0.0256091
0.293506,0.293848,0.303962,0.329571,8.813,0.00336178,0.00343611,0.00341199,-0.000917063,102.211,-0.000341797,-0.0101139,-0.0256091
0.302979,0.30332,0.31022,0.335829,9.113,0.00349235,0.00350172,0.00355414,-0.000991699,100.268,-0.000341797,-0.006899527,-0.0256091
0.313525,0.313867,0.322728,0.348337,9.413,0.00355536,0.00360253,0.00364666,-0.00103666,101.327,-0.000341797,-0.008860429,-0.0256091
0.323486,0.323828,0.330582,0.356191,9.713,0.00364266,0.00368242,0.00372375,-0.00105396,101.092,-0.000341797,-0.006754022,-0.0256091
0.33291,0.333252,0.341196,0.366805,10.013,0.00376171,0.0037921,0.00381804,-0.00112498,100.808,-0.000341797,-0.007944368,-0.0256091
0.342822,0.343164,0.35028,0.375889,10.313,0.00383691,0.00386024,0.00391096,-0.00112805,100.608,-0.000341797,-0.007115585,-0.0256091
0.353711,0.354053,0.361113,0.386723,10.613,0.00395374,0.00395472,0.00401416,-0.00103701,100.025,-0.000341797,-0.007060743,-0.0256091
0.363135,0.363477,0.372816,0.398425,10.913,0.00414362,0.00416397,0.00421853,-0.00114479,100.491,-0.000341797,-0.009339134,-0.0256091
0.372998,0.37334,0.376618,0.402227,11.213,0.00418466,0.00420442,0.00427261,-0.00121185,100.472,-0.000341797,-0.003278121,-0.0256091
0.382861,0.383203,0.388687,0.414296,11.513,0.00427396,0.00429753,0.00438249,-0.00124507,100.551,-0.000341797,-0.005483924,-0.0256091
0.394043,0.394385,0.397252,0.422861,11.813,0.00436586,0.00436444,0.00446415,-0.0012384,99.9675,-0.000341797,-0.002867141,-0.0256091
0.403174,0.403516,0.407858,0.433467,12.113,0.00446546,0.00449813,0.00453184,-0.00131242,100.732,-0.000341797,-0.004342725,-0.0256091
0.412988,0.41333,0.41383,0.439439,12.413,0.00462294,0.00465447,0.00466271,-0.00134302,100.682,-0.000341797,-0.000499739,-0.0256091
0.423535,0.423877,0.425551,0.451161,12.713,0.00474077,0.00476496,0.00479601,-0.00138969,100.51,-0.000341797,-0.001674509,-0.0256091
0.43374,0.434082,0.434666,0.460275,13.013,0.00495219,0.00499528,0.0050642,-0.00141053,100.87,-0.000341797,-0.000583927,-0.0256091
0.443115,0.443457,0.444019,0.469628,13.313,0.00509112,0.00514288,0.00517306,-0.00132442,101.017,-0.000341797,-0.000562247,-0.0256091
0.453369,0.453711,0.453283,0.478892,13.613,0.00511657,0.00515535,0.00522909,-0.00135882,100.758,-0.000341797,0.000427819,-0.0256091
0.463281,0.463623,0.461797,0.487407,13.913,0.00515622,0.00522253,0.00532532,-0.00147199,101.286,-0.000341797,0.001825631,-0.0256091
0.473877,0.474219,0.470296,0.495905,14.213,0.005236,0.00526341,0.00533318,-0.00149039,100.523,-0.000341797,0.003922629,-0.0256091
0.48335,0.483691,0.479583,0.505192,14.513,0.00523904,0.0053087,0.00534587,-0.00158231,101.33,-0.000341797,0.004108298,-0.0256091
0.493701,0.494043,0.489239,0.514848,14.813,0.00532359,0.00538482,0.0054256,-0.0016257,101.15,-0.000341797,0.004804038,-0.0256091
0.503125,0.503467,0.496552,0.522161,15.113,0.00560343,0.00559292,0.00563729,-0.00160658,99.8124,-0.000341797,0.006914442,-0.0256091
0.513721,0.514063,0.505012,0.530621,15.413,0.00569917,0.00568617,0.00573537,-0.00164228,99.7719,-0.000341797,0.009050379,-0.0256091
0.523682,0.524023,0.516435,0.542044,15.713,0.00580982,0.00587766,0.00587996,-0.00169803,101.168,-0.000341797,0.007588735,-0.0256091
0.533057,0.533398,0.524014,0.549623,16.013,0.00593708,0.00601526,0.00606111,-0.00170417,101.317,-0.000341797,0.009384312,-0.0256091
0.542969,0.543311,0.528913,0.554522,16.313,0.00601614,0.00609764,0.00617716,-0.00166591,101.355,-0.000341797,0.01439745,-0.0256091
0.55376,0.554102,0.538774,0.564384,16.613,0.00601697,0.006148,0.00622462,-0.00176704,102.178,-0.000341797,0.0153271,-0.0256091
0.563232,0.563574,0.54424,0.569849,16.913,0.00605158,0.00617574,0.0062388,-0.00180375,102.052,-0.000341797,0.0193345,-0.0256091
0.573047,0.573389,0.554169,0.579778,17.213,0.00610227,0.00620826,0.00627401,-0.00183366,101.737,-0.000341797,0.0192196,-0.0256091
0.58291,0.583252,0.564624,0.590233,17.513,0.00620787,0.00628373,0.00632162,-0.00186998,101.222,-0.000341797,0.0186282,-0.0256091
0.594092,0.594434,0.570069,0.595678,17.813,0.00628242,0.00636907,0.00640153,-0.00188434,101.379,-0.000341797,0.02436472,-0.0256091
0.6031738,0.603516,0.577802,0.603411,18.113,0.00652574,0.00654134,0.00658011,-0.00196563,100.239,-0.000341797,0.0257137,-0.0256091
0.612939,0.613281,0.585318,0.610927,18.413,0.00672695,0.00673284,0.00682681,-0.00197482,100.088,-0.000341797,0.0279638,-0.0256091
0.623584,0.623926,0.595129,0.620738,18.713,0.00678318,0.00688836,0.00695734,-0.00197557,101.551,-0.000341797,0.02879661,-0.0256091
0.633887,0.634229,0.599376,0.624985,19.013,0.00686946,0.00696748,0.00703854,-0.00202165,101.427,-0.000341797,0.0348528,-0.0256091
0.643311,0.643652,0.608253,0.633862,19.313,0.00691653,0.00704298,0.00715023,-0.00194721,101.828,-0.000341797,0.0353995,-0.0256091
0.653564,0.653906,0.617325,0.642934,19.613,0.00697801,0.00711987,0.00715018,-0.00208591,102.033,-0.000341797,0.0365812,-0.0256091
0.663379,0.663721,0.624179,0.649788,19.913,0.00702312,0.00717934,0.0072385,-0.00213819,102.224,-0.000341797,0.03954157,-0.0256091
0.673779,0.674121,0.631754,0.657363,20.213,0.00700243,0.00721704,0.00727852,-0.00210934,103.065,-0.000341797,0.0423669,-0.0256091
0.683203,0.683545,0.641798,0.667407,20.513,0.00714853,0.00732259,0.00741097,-0.0021972,102.435,-0.000341797,0.041747,-0.0256091
0.693506,0.693848,0.645849,0.671458,20.813,0.00724667,0.00743828,0.00750604,-0.00225607,102.644,-0.000341797,0.0479985,-0.0256091
0.70293,0.703271,0.655879,0.681488,21.113,0.00745353,0.00756861,0.00766269,-0.00223618,101.544,-0.000341797,0.0473928,-0.0256091
0.713428,0.71377,0.660937,0.686547,21.413,0.00755313,0.0076586,0.00778616,-0.00226591,101.396,-0.000341797,0.0528321,-0.0256091
0.723438,0.723779,0.671488,0.697097,21.713,0.0076875,0.00776526,0.00788349,-0.00237104,101.012,-0.000341797,0.052291,-0.0256091
0.73291,0.733252,0.678001,0.70361,22.013,0.00779934,0.00795433,0.00802551,-0.00226838,101.987,-0.000341797,0.0552509,-0.0256091
0.742871,0.743213,0.684768,0.710377,22.313,0.0078195,0.00799065,0.00803022,-0.00236322,102.189,-0.000341797,0.0584447,-0.0256091
0.75376,0.754102,0.691921,0.71753,22.613,0.00786317,0.00803479,0.00813034,-0.00240049,102.183,-0.000341797,0.0621806,-0.0256091
0.763184,0.763525,0.700588,0.726197,22.913,0.00803831,0.00822225,0.00832327,-0.00239226,102.288,-0.000341797,0.0629374,-0.0256091
0.773047,0.773389,0.707134,0.732744,23.213,0.00808159,0.00833322,0.00843079,-0.00244204,103.114,-0.000341797,0.0662542,-0.0256091
0.78291,0.783252,0.713639,0.739248,23.513,0.00829799,0.00825001,0.00833894,-0.00251906,99.4218,-0.000341797,0.0696133,-0.0256091
0.794189,0.794531,0.723941,0.74955,23.813,0.00830069,0.00837134,0.00848592,-0.00259302,100.851,-0.000341797,0.0705901,-0.0256091
0.803223,0.803564,0.729859,0.755468,24.113,0.00844312,0.00848503,0.00862764,-0.00259314,100.496,-0.000341797,0.0737052,-0.0256091
0.813135,0.813477,0.734655,0.760264,24.413,0.00846679,0.00853772,0.00868473,-0.00262707,100.838,-0.000341797,0.0788214,-0.0256091
0.82373,0.824072,0.74062,0.76623,24.713,0.00861925,0.00872811,0.00882672,-0.00263887,101.263,-0.000341797,0.0834519,-0.0256091
0.833936,0.834277,0.748789,0.774398,25.013,0.00868985,0.00883406,0.00891402,-0.00263294,101.66,-0.000341797,0.0854888,-0.0256091
0.843311,0.843652,0.75647,0.78208,25.313,0.00879703,0.0089436,0.00899098,-0.00270596,101.666,-0.000341797,0.0871819,-0.0256091
0.853369,0.853711,0.760917,0.786526,25.613,0.00894651,0.00906207,0.00916285,-0.00274595,101.292,-0.000341797,0.0927937,-0.0256091
0.863232,0.863574,0.769801,0.79541,25.913,0.00910319,0.00920585,0.00932824,-0.00277883,101.128,-0.000341797,0.0937729,-0.0256091
0.873779,0.874121,0.7788382,0.804447,26.213,0.009258,0.00934279,0.00947251,-0.00280428,100.916,-0.000341797,0.0952829,-0.0256091
0.883203,0.883545,0.783992,0.809602,26.513,0.00936448,0.00942784,0.009562,-0.00281687,100.677,-0.000341797,0.0995525,-0.0256091
0.893555,0.893897,0.79287,0.818479,26.813,0.00940617,0.00944368,0.00959278,-0.00288342,100.399,-0.000341797,0.1010262,-0.0256091
0.902979,0.90332,0.798703,0.824312,27.113,0.00943929,0.00945974,0.00963104,-0.00288847,100.217,-0.000341797,0.104617,-0.0256091
0.913623,0.913965,0.803774,0.829383,27.413,0.00944885,0.00954179,0.00964263,-0.00290973,100.984,-0.000341797,0.110191,-0.0256091
0.923584,0.923926,0.81569,0.841299,27.713,0.00950043,0.0095966,0.00971345,-0.00294676,101.012,-0.000341797,0.108236,-0.0256091
0.93291,0.933252,0.819357,0.844966,28.013,0.00962792,0.00970111,0.00982458,-0.0029422,100.76,-0.000341797,0.113895,-0.0256091
0.942676,0.9430176,0.82246,0.848069,28.313,0.00978931,0.00989321,0.0100137,-0.00300212,101.061,-0.000341797,0.120558,-0.0256091
0.953516,0.953857,0.833271,0.85888,28.613,0.00991904,0.00991213,0.0101432,-0.00300713,99.9303,-0.000341797,0.120587,-0.0256091
0.963086,0.963428,0.837204,0.862814,28.913,0.0100841,0.010041,0.0103244,-0.00305423,99.5726,-0.000341797,0.126223,-0.0256091
0.9729492,0.973291,0.844405,0.870015,29.213,0.0102067,0.0102091,0.0104426,-0.00307436,100.024,-0.000341797,0.128886,-0.0256091
0.98291,0.983252,0.852552,0.878161,29.513,0.0102854,0.0103014,0.0105156,-0.0031337,100.156,-0.000341797,0.1307,-0.0256091
0.994141,0.994482,0.857562,0.883172,29.813,0.0103322,0.0103372,0.0105637,-0.00319218,100.048,-0.000341797,0.13692,-0.0256091
1.00317,1.00352,0.862638,0.888247,30.113,0.0103388,0.0104146,0.0105764,-0.00322155,100.733,-0.000341797,0.140877,-0.0256091
1.01304,1.01338,0.872635,0.898244,30.413,0.0104056,0.0104205,0.0106252,-0.00324605,100.143,-0.000341797,0.140744,-0.0256091
1.02349,1.02383,0.876658,0.902267,30.713,0.010467,0.0104732,0.0107187,-0.0032218,100.059,-0.000341797,0.14717,-0.0256091
1.03364,1.03398,0.882957,0.908566,31.013,0.01066,0.0105738,0.0108857,-0.00328475,99.1914,-0.000341797,0.151028,-0.0256091
1.04302,1.04336,0.88748,0.913089,31.313,0.0108689,0.0107848,0.0110513,-0.00334762,99.2262,-0.000341797,0.15588,-0.0256091
1.05322,1.05356,0.897543,0.923152,31.613,0.0109857,0.0109431,0.011192,-0.00333563,99.6122,-0.000341797,0.156022,-0.0256091
1.06318,1.06353,0.903921,0.92953,31.913,0.0110052,0.0109884,0.0112067,-0.00346637,99.8473,-0.000341797,0.159604,-0.0256091
1.07373,1.07407,0.909973,0.935582,32.213,0.0110894,0.0111059,0.0113046,-0.00349488,100.149,-0.000341797,0.1641,-0.0256091
1.0832,1.08354,0.914909,0.940518,32.513,0.011196,0.0112751,0.0114286,-0.00351197,100.707,-0.000341797,0.168636,-0.0256091
1.09355,1.0939,0.921557,0.947166,32.813,0.0111976,0.011295,0.0114548,-0.00353189,100.87,-0.000341797,0.17234,-0.0256091
1.10308,1.10342,0.929073,0.954682,33.113,0.0113013,0.0112972,0.0115605,-0.00359189,99.9637,-0.000341797,0.174345,-0.0256091
1.11367,1.11401,0.933563,0.959172,33.413,0.0114232,0.0113705,0.0116478,-0.00363575,99.5387,-0.000341797,0.180451,-0.0256091
1.12373,1.12407,0.938985,0.964594,33.713,0.0114964,0.0114659,0.011733,-0.00352887,99.7347,-0.000341797,0.185088,-0.0256091
1.1332,1.13354,0.948134,0.973743,34.013,0.011602,0.0115455,0.0118776,-0.00367734,99.513,-0.000341797,0.185411,-0.0256091
1.14321,1.14355,0.950427,0.976036,34.313,0.0117494,0.0116737,0.0119568,-0.00364834,99.3557,-0.000341797,0.193128,-0.0256091
1.1542,1.15454,0.959347,0.984956,34.613,0.0118714,0.0118641,0.0121065,-0.00373164,99.9385,-0.000341797,0.195194,-0.0256091
1.16357,1.16392,0.965577,0.991186,34.913,0.0119335,0.0119546,0.0121657,-0.00372184,100.177,-0.000341797,0.1983393,-0.0256091
1.17344,1.17378,0.968714,0.994323,35.213,0.0119984,0.0120602,0.0122666,-0.00385598,100.515,-0.000341797,0.205066,-0.0256091
1.1832,1.18354,0.97659,1.0022,35.513,0.0121217,0.0121236,0.0123469,-0.00383976,100.016,-0.000341797,0.206955,-0.0256091
1.19424,1.19458,0.981079,1.00669,35.813,0.0122064,0.0121701,0.0124512,-0.00394433,99.7026,-0.000341797,0.213501,-0.0256091
1.20317,1.20352,0.986211,1.01182,36.113,0.0123152,0.0122234,0.0125877,-0.00394151,99.2546,-0.000341797,0.217305,-0.0256091
1.21294,1.21328,0.994025,1.01963,36.413,0.0124666,0.0123887,0.0127488,-0.00385643,99.3751,-0.000341797,0.219256,-0.0256091
1.22334,1.22368,0.998392,1.024,36.713,0.0125362,0.0124605,0.0127732,-0.00388324,99.3962,-0.000341797,0.22529,-0.0256091
1.23354,1.23389,1.00502,1.03063,37.013,0.0125605,0.0125328,0.0128044,-0.00399083,99.7795,-0.000341797,0.228868,-0.0256091
1.24307,1.24341,1.01071,1.03632,37.313,0.0126188,0.0126192,0.0128606,-0.00408456,100.003,-0.000341797,0.232697,-0.0256091
1.25322,1.25356,1.0171,1.0427,37.613,0.0126864,0.0126295,0.0128901,-0.00409985,99.5515,-0.000341797,0.236469,-0.0256091
1.26318,1.26353,1.0227,1.04831,37.913,0.0128222,0.0128448,0.0130417,-0.00411584,100.176,-0.000341797,0.240826,-0.0256091
1.27368,1.27402,1.02963,1.05524,38.213,0.0129714,0.0129173,0.0131662,-0.00417469,99.5829,-0.000341797,0.244392,-0.0256091
1.28301,1.28335,1.0321,1.05771,38.513,0.0130712,0.0130098,0.0133199,-0.0042408,99.5303,-0.000341797,0.251246,-0.0256091
1.29346,1.2938,1.0416,1.0672,38.813,0.0132346,0.0131794,0.0134887,-0.00428619,99.5829,-0.000341797,0.252203,-0.0256091
1.30298,1.30332,1.04668,1.07229,39.113,0.013307,0.0132358,0.013557,-0.00434838,99.4649,-0.000341797,0.256643,-0.0256091
1.31362,1.31396,1.05285,1.07846,39.413,0.013294,0.0132887,0.0135405,-0.0042738,99.9601,-0.000341797,0.261113,-0.0256091
1.32368,1.32402,1.05758,1.08319,39.713,0.0133505,0.0133989,0.0136476,-0.00429327,100.363,-0.000341797,0.266444,-0.0256091
1.3332,1.33354,1.06149,1.0871,40.013,0.013423,0.0134369,0.0136981,-0.00433389,100.104,-0.000341797,0.272059,-0.0256091
1.34312,1.34346,1.06692,1.09253,40.313,0.0134693,0.0135648,0.0137115,-0.00436473,100.709,-0.000341797,0.276533,-0.0256091
1.354,1.35435,1.07238,1.09799,40.613,0.0135829,0.0135756,0.0138189,-0.00446725,99.9463,-0.000341797,0.281969,-0.0256091
1.36328,1.36362,1.0787,1.10431,40.913,0.0137891,0.0137307,0.0139945,-0.0045214,99.5765,-0.000341797,0.284919,-0.0256091
1.37305,1.37339,1.08461,1.11022,41.213,0.0139342,0.0138175,0.0141296,-0.00458774,99.1625,-0.000341797,0.288776,-0.0256091
1.38291,1.38325,1.08696,1.11257,41.513,0.0140328,0.0139489,0.0142876,-0.00461091,99.4021,-0.000341797,0.296288,-0.0256091
1.39414,1.39448,1.09708,1.12269,41.813,0.0141671,0.0141003,0.0144038,-0.0046572,99.5285,-0.000341797,0.297402,-0.0256091
1.40317,1.40352,1.099,1.12461,42.113,0.0142416,0.0142273,0.014509,-0.00454229,99.8996,-0.000341797,0.304512,-0.0256091
1.41304,1.41338,1.10525,1.13086,42.413,0.0142298,0.0142943,0.0145026,-0.00456387,100.453,-0.000341797,0.308129,-0.0256091
1.42354,1.42388,1.11247,1.13807,42.713,0.014259,0.0142973,0.0145459,-0.00471012,100.269,-0.000341797,0.311412,-0.0256091
1.43374,1.43408,1.11488,1.14049,43.013,0.014296,0.0143647,0.0146041,-0.00473495,100.481,-0.000341797,0.3192,-0.0256091
1.44316,1.44351,1.12537,1.15098,43.313,0.0143885,0.0144185,0.0146651,-0.00472922,100.208,-0.000341797,0.318134,-0.0256091
1.45332,1.45366,1.12527,1.15088,43.613,0.0145243,0.0144442,0.0147753,-0.00484342,99.4485,-0.000341797,0.328394,-0.0256091
1.46318,1.46353,1.13426,1.15987,43.913,0.0146623,0.014536,0.0148699,-0.00487378,99.1386,-0.000341797,0.329261,-0.0256091
1.47368,1.47402,1.13954,1.16515,44.213,0.0147807,0.0146868,0.0150079,-0.00491899,99.3647,-0.000341797,0.334487,-0.0256091
1.48311,1.48345,1.1426,1.1682,44.513,0.0149245,0.0148722,0.0151645,-0.00499055,99.6496,-0.000341797,0.340852,-0.0256091
1.49355,1.4939,1.14829,1.1739,44.813,0.0150082,0.0149912,0.015272,-0.00500315,99.8867,-0.000341797,0.345608,-0.0256091
1.50308,1.50342,1.15022,1.17583,45.113,0.0150549,0.0150777,0.0153031,-0.00489388,100.151,-0.000341797,0.353197,-0.0256091
1.51362,1.51396,1.15781,1.18342,45.413,0.0151035,0.015149,0.0153958,-0.00493185,100.301,-0.000341797,0.356151,-0.0256091
1.52354,1.52388,1.16282,1.18843,45.713,0.0151268,0.0152246,0.0154787,-0.00500051,100.647,-0.000341797,0.361059,-0.0256091
1.53301,1.53335,1.16658,1.19219,46.013,0.0151832,0.0152263,0.0155075,-0.00508869,100.284,-0.000341797,0.36677,-0.0256091
1.54282,1.54316,1.17033,1.19594,46.313,0.0153326,0.0153113,0.0156161,-0.00512551,99.8611,-0.000341797,0.372829,-0.0256091
1.55366,1.554,1.17701,1.20262,46.613,0.015393,0.0153989,0.0157072,-0.00519384,100.038,-0.000341797,0.376991,-0.0256091
1.56313,1.56348,1.1814,1.207,46.913,0.0155377,0.0154632,0.0158269,-0.00525149,99.5205,-0.000341797,0.382081,-0.0256091
1.573,1.57334,1.18293,1.20854,47.213,0.0156364,0.0156105,0.0159085,-0.00529414,99.8344,-0.000341797,0.39041,-0.0256091
1.58286,1.5832,1.18952,1.21513,47.513,0.015691,0.0157112,0.015978,-0.00533106,100.129,-0.000341797,0.393678,-0.0256091
1.59404,1.59438,1.194,1.21961,47.813,0.0157977,0.0158263,0.0160734,-0.00539219,100.181,-0.000341797,0.400389,-0.0256091
1.60313,1.60347,1.19878,1.22439,48.113,0.0158821,0.0158479,0.0161816,-0.00523909,99.7847,-0.000341797,0.404686,-0.0256091
1.61294,1.61328,1.20485,1.23045,48.413,0.0159341,0.0159837,0.0162427,-0.00530416,100.311,-0.000341797,0.408436,-0.0256091
1.62349,1.62383,1.20838,1.23399,48.713,0.0160331,0.0160453,0.0163457,-0.00536617,100.076,-0.000341797,0.415447,-0.0256091
1.63374,1.63408,1.2116,1.23721,49.013,0.0161211,0.0161394,0.0164875,-0.00546387,100.114,-0.000341797,0.422485,-0.0256091
1.64316,1.64351,1.21463,1.24024,49.313,0.0162147,0.0162119,0.0166051,-0.00549103,99.9827,-0.000341797,0.428877,-0.0256091
1.65337,1.65371,1.22083,1.24643,49.613,0.0162534,0.0162875,0.0166343,-0.0055694,100.21,-0.000341797,0.432886,-0.0256091
1.66328,1.66362,1.22515,1.25076,49.913,0.0163216,0.0164159,0.016705,-0.00560211,100.578,-0.000341797,0.438468,-0.0256091
1.67388,1.67422,1.23127,1.25688,50.213,0.0164102,0.0164616,0.0167506,-0.00565492,100.313,-0.000341797,0.442945,-0.0256091
1.6833,1.68364,1.23294,1.25855,50.513,0.0164621,0.0165177,0.016802,-0.0056816,100.338,-0.000341797,0.450701,-0.0256091
1.69365,1.69399,1.23831,1.26392,50.813,0.0165379,0.0166174,0.0168527,-0.00561218,100.481,-0.000341797,0.455681,-0.0256091
1.70308,1.70342,1.24019,1.2658,51.113,0.0166636,0.0166788,0.016986,-0.00563382,100.091,-0.000341797,0.463228,-0.0256091
1.71362,1.71396,1.24574,1.27135,51.413,0.0167954,0.0167823,0.0171385,-0.00570943,99.922,-0.000341797,0.468227,-0.0256091
1.72368,1.72402,1.25083,1.27644,51.713,0.0168871,0.016911,0.0173018,-0.00575881,100.142,-0.000341797,0.473189,-0.0256091
1.73315,1.7335,1.25249,1.2781,52.013,0.0169528,0.0170177,0.0173726,-0.00578014,100.383,-0.000341797,0.481001,-0.0256091
1.74297,1.74331,1.25804,1.28365,52.313,0.0169953,0.0171058,0.0174651,-0.00586614,100.65,-0.000341797,0.485266,-0.0256091
1.75386,1.7542,1.26375,1.28936,52.613,0.016988,0.0171936,0.017503,-0.00589009,101.21,-0.000341797,0.490451,-0.0256091
1.76333,1.76367,1.26627,1.29188,52.913,0.0170477,0.0172296,0.0174937,-0.00595314,101.067,-0.000341797,0.497401,-0.0256091
1.77314,1.77349,1.26993,1.29554,53.213,0.0170681,0.0172492,0.0175337,-0.00598575,101.061,-0.000341797,0.503559,-0.0256091
1.78301,1.78335,1.27124,1.29685,53.513,0.0171943,0.0173253,0.0175872,-0.00600572,100.762,-0.000341797,0.512107,-0.0256091
1.79414,1.79448,1.279,1.30461,53.813,0.0172912,0.017379,0.0176922,-0.00597244,100.508,-0.000341797,0.515478,-0.0256091
1.80317,1.80352,1.28032,1.30593,54.113,0.0173852,0.0174912,0.0178569,-0.00598563,100.61,-0.000341797,0.523198,-0.0256091
1.81294,1.81328,1.28525,1.31086,54.413,0.017514,0.0176188,0.0179057,-0.00605823,100.598,-0.000341797,0.528032,-0.0256091
1.82354,1.82388,1.28874,1.31434,54.713,0.0175936,0.0177575,0.0180686,-0.0061529,100.932,-0.000341797,0.535141,-0.0256091
1.83374,1.83408,1.29002,1.31563,55.013,0.0176401,0.0178674,0.0181671,-0.00616539,101.289,-0.000341797,0.544059,-0.0256091
1.84312,1.84346,1.29563,1.32124,55.313,0.0176665,0.0179777,0.0182394,-0.00617648,101.762,-0.000341797,0.547828,-0.0256091
1.85337,1.85371,1.29982,1.32543,55.613,0.0176626,0.0180015,0.0182579,-0.00626634,101.919,-0.000341797,0.553893,-0.0256091
1.86328,1.86362,1.30134,1.32694,55.913,0.0177023,0.0180311,0.0182887,-0.00626236,101.857,-0.000341797,0.562287,-0.0256091
1.87373,1.87407,1.30571,1.33132,56.213,0.0177341,0.0180376,0.018263,-0.00627613,101.711,-0.000341797,0.568359,-0.0256091
1.88315,1.8835,1.30921,1.33482,56.513,0.0178705,0.0180739,0.0183582,-0.006289,101.138,-0.000341797,0.574289,-0.0256091
1.89341,1.89375,1.31235,1.33796,56.813,0.0179827,0.0181108,0.0184331,-0.00630776,100.712,-0.000341797,0.581396,-0.0256091
1.90293,1.90327,1.31753,1.34314,57.113,0.0181041,0.0182375,0.0185199,-0.00633428,100.737,-0.000341797,0.585737,-0.0256091
1.91357,1.91392,1.31753,1.34314,57.413,0.0182284,0.0184142,0.0186857,-0.00636843,101.019,-0.000341797,0.596388,-0.0256091
1.92354,1.92388,1.32147,1.34708,57.713,0.0183383,0.0185649,0.0188589,-0.006481,101.236,-0.000341797,0.60241,-0.0256091
1.93301,1.93335,1.32533,1.35094,58.013,0.0183501,0.0186917,0.0189394,-0.00648734,101.862,-0.000341797,0.608017,-0.0256091
1.94297,1.94331,1.32491,1.35052,58.313,0.0184366,0.0186999,0.0189707,-0.00653043,101.428,-0.000341797,0.618403,-0.0256091
1.95391,1.95425,1.32994,1.35554,58.613,0.0184595,0.0187684,0.0190019,-0.00657311,101.673,-0.000341797,0.624313,-0.0256091
1.96328,1.96362,1.33427,1.35988,58.913,0.0184591,0.0187531,0.0190048,-0.00659608,101.593,-0.000341797,0.629354,-0.0256091
1.9731,1.97344,1.33501,1.36062,59.213,0.0185293,0.0187975,0.0190601,-0.00659364,101.447,-0.000341797,0.638426,-0.0256091
1.98281,1.98315,1.34007,1.36568,59.513,0.018638,0.0188073,0.0191059,-0.00662012,100.908,-0.000341797,0.643081,-0.0256091
1.99404,1.99438,1.34326,1.36887,59.813,0.0187939,0.0189386,0.0192635,-0.0066194,100.77,-0.000341797,0.651122,-0.0256091
2.00322,2.00356,1.34428,1.36989,60.113,0.018937,0.019074,0.019381,-0.006688,100.723,-0.000341797,0.659286,-0.0256091
2.01309,2.01343,1.34648,1.37209,60.413,0.0189832,0.0191714,0.0194539,-0.00667204,100.991,-0.000341797,0.666946,-0.0256091
2.02368,2.02402,1.35074,1.37635,60.713,0.0190426,0.0192669,0.0195357,-0.00674732,101.178,-0.000341797,0.673279,-0.0256091
2.03384,2.03418,1.35294,1.37855,61.013,0.0190724,0.0193112,0.019623,-0.0067762,101.252,-0.000341797,0.681237,-0.0256091
2.04312,2.04346,1.3541,1.37971,61.313,0.0191247,0.01943,0.0196708,-0.00681636,101.596,-0.000341797,0.689354,-0.0256091
2.05332,2.05366,1.35901,1.38462,61.613,0.0191467,0.0194253,0.0197028,-0.00686512,101.455,-0.000341797,0.694653,-0.0256091
2.06313,2.06348,1.36028,1.38588,61.913,0.0191893,0.0194499,0.0197698,-0.00685903,101.358,-0.000341797,0.703201,-0.0256091
2.07354,2.07388,1.36467,1.39028,62.213,0.0192836,0.0194837,0.0198223,-0.00690515,101.038,-0.000341797,0.709208,-0.0256091
2.08301,2.08335,1.36404,1.38965,62.513,0.0193877,0.0195858,0.0198974,-0.00684971,101.022,-0.000341797,0.719309,-0.0256091
2.09341,2.09375,1.3667,1.39231,62.813,0.0194833,0.0196645,0.0200032,-0.00690955,100.93,-0.000341797,0.727048,-0.0256091
2.10288,2.10322,1.36913,1.39474,63.113,0.0195791,0.0197579,0.0200863,-0.00694213,100.913,-0.000341797,0.734094,-0.0256091
2.11353,2.11387,1.36878,1.39439,63.413,0.0196393,0.0198365,0.0201186,-0.00696936,101.004,-0.000341797,0.745087,-0.0256091
2.12354,2.12388,1.37434,1.39995,63.713,0.0196675,0.0199479,0.0201869,-0.00699782,101.426,-0.000341797,0.749539,-0.0256091
2.13301,2.13335,1.3738,1.39941,64.013,0.0197482,0.0200084,0.0202692,-0.0071226,101.318,-0.000341797,0.75955,-0.0256091
2.14292,2.14326,1.37636,1.40197,64.313,0.01981,0.0200862,0.0203899,-0.00705592,101.394,-0.000341797,0.766901,-0.0256091
2.15366,2.154,1.37889,1.4045,64.613,0.0198975,0.020167,0.0204964,-0.00716617,101.354,-0.000341797,0.775116,-0.0256091
2.16304,2.16338,1.38019,1.4058,64.913,0.0200032,0.020228,0.0205518,-0.00703644,101.124,-0.000341797,0.783193,-0.0256091
2.1728,2.17314,1.38445,1.41006,65.213,0.020004,0.0202133,0.020548,-0.00706376,101.046,-0.000341797,0.788695,-0.0256091
2.18271,2.18306,1.38651,1.41212,65.513,0.0200579,0.0202773,0.0206017,-0.00713306,101.094,-0.000341797,0.796545,-0.0256091
2.19404,2.19438,1.38647,1.41208,65.813,0.0201064,0.0203349,0.0206446,-0.00718118,101.136,-0.000341797,0.807912,-0.0256091
2.20317,2.20352,1.38915,1.41476,66.113,0.0202304,0.0204423,0.0207256,-0.00724548,101.047,-0.000341797,0.814361,-0.0256091
2.21289,2.21323,1.38942,1.41503,66.413,0.0202756,0.0204806,0.0207822,-0.00726133,101.011,-0.000341797,0.823814,-0.0256091
2.22339,2.22373,1.39248,1.41809,66.713,0.0203714,0.0205827,0.0209176,-0.00732564,101.037,-0.000341797,0.831246,-0.0256091
2.2335,2.23384,1.39455,1.42016,67.013,0.0204302,0.0206316,0.0209556,-0.00735594,100.986,-0.000341797,0.839284,-0.0256091
2.24297,2.24331,1.39426,1.41987,67.313,0.0204968,0.0207313,0.0211156,-0.00743377,101.144,-0.000341797,0.849048,-0.0256091
2.25317,2.25352,1.39819,1.4238,67.613,0.0205286,0.0206804,0.0211511,-0.00725882,100.739,-0.000341797,0.855326,-0.0256091
2.26313,2.26348,1.39841,1.42402,67.913,0.0205393,0.0207379,0.0211899,-0.00730288,100.967,-0.000341797,0.865067,-0.0256091
2.27363,2.27397,1.40199,1.4276,68.213,0.0206337,0.0208493,0.0212129,-0.00734272,101.045,-0.000341797,0.871987,-0.0256091
2.28315,2.2835,1.40132,1.42693,68.513,0.0206404,0.0208265,0.0212028,-0.00749429,100.902,-0.000341797,0.882173,-0.0256091
2.29355,2.2939,1.40642,1.43202,68.813,0.0206593,0.0208182,0.0212016,-0.00749222,100.769,-0.000341797,0.887481,-0.0256091
2.30313,2.30347,1.40718,1.43278,69.113,0.020797,0.0209573,0.0212815,-0.0075236,100.771,-0.000341797,0.896291,-0.0256091
2.31367,2.31401,1.40693,1.43254,69.413,0.0209709,0.0210411,0.021466,-0.00752856,100.335,-0.000341797,0.90708,-0.0256091
2.32363,2.32397,1.40871,1.43432,69.713,0.0209974,0.0210773,0.0215472,-0.00763435,100.381,-0.000341797,0.915267,-0.0256091
2.3332,2.33354,1.41089,1.4365,70.013,0.0210888,0.0211825,0.0216876,-0.00764197,100.444,-0.000341797,0.922655,-0.0256091
2.34321,2.34355,1.41097,1.43658,70.313,0.0210865,0.021243,0.0217629,-0.00751457,100.742,-0.000341797,0.932582,-0.0256091
2.35405,2.35439,1.41335,1.43896,70.613,0.0210687,0.0212987,0.0217457,-0.007541,101.092,-0.000341797,0.941047,-0.0256091
2.36343,2.36377,1.41375,1.43936,70.913,0.0210972,0.0213233,0.0217485,-0.00762142,101.072,-0.000341797,0.950022,-0.0256091
2.37324,2.37358,1.41641,1.44201,71.213,0.0211261,0.0213278,0.0217199,-0.00764389,100.955,-0.000341797,0.957178,-0.0256091
2.38301,2.38335,1.41287,1.43848,71.513,0.0212115,0.0213959,0.0217582,-0.00773798,100.869,-0.000341797,0.970477,-0.0256091
2.39404,2.39438,1.41952,1.44513,71.813,0.0213411,0.021449,0.0218468,-0.00774477,100.506,-0.000341797,0.974864,-0.0256091
2.40298,2.40332,1.42115,1.44676,72.113,0.0214665,0.0214962,0.0219621,-0.0077957,100.138,-0.000341797,0.982171,-0.0256091
2.4127,2.413037,1.4192,1.44481,72.413,0.0215379,0.0215746,0.0220595,-0.00783233,100.17,-0.000341797,0.993834,-0.0256091
2.42329,2.42363,1.42401,1.44962,72.713,0.0215927,0.0216707,0.0222077,-0.0078527,100.361,-0.000341797,0.999623,-0.0256091
2.43354,2.43389,1.42546,1.45107,73.013,0.0216021,0.0218023,0.0222652,-0.00770074,100.927,-0.000341797,1.00843,-0.0256091
2.44302,2.44336,1.42677,1.45237,73.313,0.0215701,0.0218572,0.0222745,-0.00774335,101.331,-0.000341797,1.01659,-0.0256091
2.45322,2.45356,1.42617,1.45178,73.613,0.0215517,0.0218515,0.0222624,-0.00780726,101.391,-0.000341797,1.02739,-0.0256091
2.46328,2.46362,1.42579,1.4514,73.913,0.0215997,0.0218291,0.0222079,-0.00788482,101.062,-0.000341797,1.03783,-0.0256091
2.47388,2.47422,1.42663,1.45224,74.213,0.0216672,0.0218495,0.0222197,-0.00786999,100.841,-0.000341797,1.04759,-0.0256091
2.4833,2.48364,1.4287,1.45431,74.513,0.0217784,0.0218791,0.0222916,-0.00795645,100.462,-0.000341797,1.05494,-0.0256091
2.49365,2.49399,1.42913,1.45474,74.813,0.0219713,0.0219482,0.022499,-0.00800088,99.8949,-0.000341797,1.06486,-0.0256091
2.50317,2.50352,1.43,1.4556,75.113,0.0220525,0.0220373,0.0225723,-0.00801457,99.9311,-0.000341797,1.07352,-0.0256091
2.51382,2.51416,1.43527,1.46088,75.413,0.0219519,0.0222529,0.0226636,-0.00780499,101.371,-0.000341797,1.07889,-0.0256091
2.52388,2.52422,1.43374,1.45935,75.713,0.0222966,0.0224442,0.0229556,-0.00769338,100.662,-0.000341797,1.09048,-0.0256091
2.5333,2.53364,1.42995,1.45556,76.013,0.0220446,0.0222569,0.0227025,-0.00790247,100.963,-0.000341797,1.10369,-0.0256091
2.54316,2.54351,1.4337,1.45931,76.313,0.0220144,0.0223295,0.0227237,-0.00794055,101.431,-0.000341797,1.1098,-0.0256091
2.55391,2.55425,1.43695,1.46255,76.613,0.0220451,0.0223547,0.0227119,-0.00801114,101.404,-0.000341797,1.1173,-0.0256091
2.56328,2.56362,1.4363,1.4619,76.913,0.0221461,0.0223011,0.0227031,-0.00804931,100.7,-0.000341797,1.12733,-0.0256091
2.5731,2.57344,1.43628,1.46189,77.213,0.0222457,0.0222987,0.022762,-0.00809977,100.238,-0.000341797,1.13716,-0.0256091
2.58286,2.5832,1.43531,1.46092,77.513,0.022354,0.0223569,0.0228802,-0.00808805,100.013,-0.000341797,1.14789,-0.0256091
2.59399,2.59434,1.43652,1.46213,77.813,0.0224716,0.022435,0.0230132,-0.0081331,99.8371,-0.000341797,1.15782,-0.0256091
2.60313,2.60347,1.43534,1.46094,78.113,0.0224878,0.0225852,0.023073,-0.00814736,100.433,-0.000341797,1.16813,-0.0256091
2.61284,2.61318,1.43803,1.46364,78.413,0.0224537,0.0226834,0.0230692,-0.00802243,101.023,-0.000341797,1.17515,-0.0256091
2.62349,2.62383,1.43721,1.46282,78.713,0.0222928,0.0226202,0.0230381,-0.00804729,101.469,-0.000341797,1.18662,-0.0256091
2.63369,2.63403,1.43752,1.46313,79.013,0.0223401,0.0226192,0.0230383,-0.00814138,101.249,-0.000341797,1.19651,-0.0256091
2.64307,2.64341,1.43525,1.46086,79.313,0.0223502,0.0226431,0.0230294,-0.00817648,101.311,-0.000341797,1.20816,-0.0256091
2.65337,2.65371,1.43424,1.45985,79.613,0.0224678,0.022645,0.0230452,-0.00814859,100.789,-0.000341797,1.21947,-0.0256091
2.66333,2.66367,1.43341,1.45902,79.913,0.0225839,0.0226612,0.0231401,-0.0081672,100.342,-0.000341797,1.23026,-0.0256091
2.67383,2.67417,1.43496,1.46057,80.213,0.0226377,0.0226188,0.0231302,-0.00821415,99.9165,-0.000341797,1.23921,-0.0256091
2.6834,2.68374,1.43341,1.45902,80.513,0.0227801,0.0228224,0.0233625,-0.00822086,100.186,-0.000341797,1.25033,-0.0256091
2.69375,2.69409,1.4347,1.46031,80.813,0.022742,0.0228417,0.0233166,-0.00816978,100.438,-0.000341797,1.25939,-0.0256091
2.70332,2.70366,1.43043,1.45604,81.113,0.0227892,0.0229636,0.0233681,-0.00821914,100.765,-0.000341797,1.27323,-0.0256091
2.71396,2.71431,1.43106,1.45667,81.413,0.0226925,0.022957,0.0233456,-0.00811368,101.166,-0.000341797,1.28325,-0.0256091
2.72378,2.72412,1.43285,1.45846,81.713,0.0227113,0.0229881,0.023387,-0.00818234,101.219,-0.000341797,1.29127,-0.0256091
2.73311,2.73345,1.42779,1.4534,82.013,0.022668,0.0229796,0.0233642,-0.00822806,101.375,-0.000341797,1.30566,-0.0256091
2.74302,2.74336,1.4296,1.4552,82.313,0.0226915,0.0229114,0.0232845,-0.00818888,100.969,-0.000341797,1.31376,-0.0256091
2.75376,2.7541,1.42804,1.45365,82.613,0.0227833,0.0228863,0.0233552,-0.00823325,100.452,-0.000341797,1.32606,-0.0256091
2.76318,2.76353,1.42523,1.45084,82.913,0.0228212,0.0228424,0.0233728,-0.00825659,100.093,-0.000341797,1.33829,-0.0256091
2.77305,2.77339,1.42481,1.45042,83.213,0.0229359,0.0229023,0.023462,-0.00825625,99.8535,-0.000341797,1.34858,-0.0256091
2.78286,2.7832,1.42264,1.44825,83.513,0.0229677,0.022976,0.0234875,-0.0083131,100.036,-0.000341797,1.36056,-0.0256091
2.79404,2.79438,1.42283,1.44844,83.813,0.0229632,0.0230864,0.0235103,-0.00825628,100.537,-0.000341797,1.37156,-0.0256091
2.80312,2.80347,1.42166,1.44727,84.113,0.0229415,0.0231146,0.023497,-0.00834949,100.755,-0.000341797,1.38181,-0.0256091
2.81294,2.81328,1.41843,1.44404,84.413,0.0228713,0.0231393,0.0234935,-0.00816569,101.172,-0.000341797,1.39485,-0.0256091
2.82349,2.82383,1.42008,1.44569,84.713,0.0228662,0.0230989,0.0234588,-0.0081386,101.018,-0.000341797,1.40375,-0.0256091
2.83364,2.83398,1.41569,1.4413,85.013,0.0228106,0.0231541,0.0234609,-0.00814697,101.506,-0.000341797,1.41829,-0.0256091
2.84312,2.84346,1.41289,1.4385,85.313,0.0228035,0.0230902,0.0234241,-0.00817138,101.257,-0.000341797,1.43057,-0.0256091
2.85337,2.85371,1.41045,1.43606,85.613,0.0227613,0.023026,0.023343,-0.00816449,101.163,-0.000341797,1.44326,-0.0256091
2.86328,2.86362,1.40981,1.43541,85.913,0.0227938,0.0229356,0.0233037,-0.0081803,100.622,-0.000341797,1.45382,-0.0256091
2.87378,2.87412,1.40636,1.43197,86.213,0.0229358,0.0230764,0.0234276,-0.00813681,100.613,-0.000341797,1.46776,-0.0256091
2.88325,2.88359,1.40421,1.42982,86.513,0.0229163,0.023018,0.0233724,-0.00814541,100.444,-0.000341797,1.47938,-0.0256091
2.8936,2.89395,1.39934,1.42495,86.813,0.0229701,0.0230655,0.0234485,-0.00814614,100.415,-0.000341797,1.4946,-0.0256091
2.90308,2.90342,1.39606,1.42167,87.113,0.0229379,0.0230899,0.0234146,-0.00816245,100.663,-0.000341797,1.50736,-0.0256091
2.91357,2.91392,1.39471,1.42032,87.413,0.0229332,0.0230963,0.0234302,-0.00813241,100.711,-0.000341797,1.51921,-0.0256091
2.92354,2.92388,1.38966,1.41527,87.713,0.022874,0.0231088,0.0233964,-0.00814696,101.026,-0.000341797,1.53422,-0.0256091
2.93296,2.9333,1.38851,1.41412,88.013,0.0228549,0.0230738,0.0233861,-0.0080086,100.958,-0.000341797,1.54479,-0.0256091
2.94297,2.94331,1.38457,1.41018,88.313,0.0227663,0.0230215,0.0233482,-0.00798647,101.121,-0.000341797,1.558744,-0.0256091
2.95391,2.95425,1.38195,1.40756,88.613,0.0226958,0.0230433,0.0233128,-0.00795722,101.531,-0.000341797,1.5723,-0.0256091
2.96328,2.96362,1.37719,1.4028,88.913,0.0226333,0.023009,0.0232286,-0.00798501,101.66,-0.000341797,1.58643,-0.0256091
2.97314,2.97349,1.3723,1.39791,89.213,0.0226125,0.0229554,0.0231845,-0.00794711,101.516,-0.000341797,1.60119,-0.0256091
2.98315,2.9835,1.36601,1.39162,89.513,0.0225293,0.0228444,0.0231115,-0.00796947,101.399,-0.000341797,1.61749,-0.0256091
2.99434,2.99468,1.3645,1.39011,89.813,0.0224911,0.0228038,0.0230469,-0.00794983,101.39,-0.000341797,1.63018,-0.0256091
3.00337,3.00371,1.35874,1.38435,90.113,0.0224548,0.0227259,0.0230096,-0.00789766,101.207,-0.000341797,1.64497,-0.0256091
3.01313,3.01348,1.35863,1.38424,90.413,0.0224041,0.0226795,0.0229322,-0.00790655,101.229,-0.000341797,1.65484,-0.0256091
3.02368,3.02402,1.35118,1.37679,90.713,0.0223692,0.0226103,0.0228925,-0.0078604,101.078,-0.000341797,1.67284,-0.0256091
3.033838,3.03418,1.34665,1.37226,91.013,0.0223308,0.0225141,0.0227955,-0.00787743,100.821,-0.000341797,1.68753,-0.0256091
3.04326,3.0436,1.33913,1.36474,91.313,0.0223274,0.0225153,0.0228009,-0.007869,100.842,-0.000341797,1.70448,-0.0256091
3.05342,3.05376,1.33427,1.35988,91.613,0.0222445,0.0224328,0.0227154,-0.00782957,100.847,-0.000341797,1.71949,-0.0256091
3.06333,3.06367,1.33029,1.3559,91.913,0.0222414,0.0223695,0.0226945,-0.00782739,100.576,-0.000341797,1.73339,-0.0256091
3.07373,3.07407,1.32623,1.35184,92.213,0.0221653,0.0223384,0.0226171,-0.00780167,100.781,-0.000341797,1.74784,-0.0256091
3.08301,3.08335,1.32266,1.34827,92.513,0.0221227,0.0222718,0.0225468,-0.00781212,100.674,-0.000341797,1.76069,-0.0256091
3.09331,3.09365,1.31612,1.34173,92.813,0.0220383,0.0222018,0.0224831,-0.00778343,100.742,-0.000341797,1.77753,-0.0256091
3.10278,3.10312,1.31089,1.3365,93.113,0.0220181,0.0221814,0.0224812,-0.00773779,100.742,-0.000341797,1.79223,-0.0256091
3.11338,3.11372,1.3113,1.33691,93.413,0.0220049,0.0221586,0.0224221,-0.00775709,100.698,-0.000341797,1.80242,-0.0256091
3.12344,3.12378,1.30427,1.32988,93.713,0.021874,0.0220607,0.0223484,-0.00773391,100.854,-0.000341797,1.81951,-0.0256091
3.13301,3.13335,1.29883,1.32444,94.013,0.0218267,0.0220088,0.0222649,-0.00766828,100.834,-0.000341797,1.83452,-0.0256091
3.14302,3.14336,1.2937,1.3193,94.313,0.0217594,0.0219551,0.0222273,-0.00763003,100.899,-0.000341797,1.84966,-0.0256091
3.154,3.15435,1.28989,1.3155,94.613,0.0217422,0.0219092,0.0222022,-0.00767391,100.768,-0.000341797,1.86446,-0.0256091
3.16343,3.16377,1.28531,1.31092,94.913,0.0216842,0.0218841,0.0221788,-0.00767248,100.922,-0.000341797,1.87846,-0.0256091
3.17324,3.17358,1.28137,1.30698,95.213,0.02164,0.0218205,0.0221635,-0.00761698,100.834,-0.000341797,1.89221,-0.0256091
3.18315,3.1835,1.27786,1.30347,95.513,0.0215958,0.0218075,0.0220851,-0.00762428,100.98,-0.000341797,1.90564,-0.0256091
3.19424,3.19458,1.27597,1.30158,95.813,0.0215438,0.0217248,0.0220101,-0.0076148,100.84,-0.000341797,1.91861,-0.0256091
3.20327,3.20361,1.27,1.29561,96.113,0.0214766,0.0216936,0.0219647,-0.0076332,101.01,-0.000341797,1.93361,-0.0256091
3.21313,3.21348,1.26712,1.29273,96.413,0.0214265,0.021627,0.0219213,-0.00754786,100.936,-0.000341797,1.94635,-0.0256091
3.22368,3.22402,1.2604,1.28601,96.713,0.0213898,0.0215925,0.0219079,-0.00754164,100.948,-0.000341797,1.96362,-0.0256091
3.23389,3.23423,1.25842,1.28403,97.013,0.0212644,0.0214366,0.0218183,-0.00754941,100.81,-0.000341797,1.97581,-0.0256091
3.24326,3.2436,1.25596,1.28157,97.313,0.0212732,0.0214809,0.0218399,-0.00757145,100.902,-0.000341797,1.98764,-0.0256091
3.25332,3.25366,1.24971,1.27532,97.613,0.0212094,0.0213595,0.0218251,-0.00750385,100.708,-0.000341797,2.00395,-0.0256091
3.26323,3.26357,1.24589,1.2715,97.913,0.0211139,0.0213568,0.0218067,-0.00744827,101.15,-0.000341797,2.01768,-0.0256091
3.27378,3.27412,1.23621,1.26182,98.213,0.0209876,0.0213208,0.0217634,-0.00739656,101.588,-0.000341797,2.03791,-0.0256091
3.2832,3.28354,1.23037,1.25598,98.513,0.0208825,0.0213354,0.0217345,-0.00729689,102.169,-0.000341797,2.05317,-0.0256091
3.29355,3.2939,1.22345,1.24905,98.813,0.0208019,0.0212892,0.0217067,-0.00726288,102.343,-0.000341797,2.07045,-0.0256091
3.30303,3.30337,1.21638,1.24199,99.113,0.0207335,0.0211919,0.0216806,-0.00727928,102.211,-0.000341797,2.08699,-0.0256091
3.31362,3.31396,1.20625,1.23186,99.413,0.0207288,0.0211038,0.0216845,-0.00726418,101.809,-0.000341797,2.10772,-0.0256091
3.32378,3.32412,1.18854,1.21415,99.713,0.0203622,0.0209812,0.021578,-0.00712989,103.04,-0.000341797,2.13558,-0.0256091
3.33315,3.3335,1.05195,1.07756,100.013,0.0202182,0.0207257,0.0213642,-0.00724813,102.51,-0.000341797,2.28154,-0.0256091
3.34312,3.34346,0.94223,0.967839,100.313,NaN,0.0204815,0.0211214,NaN,NaN,-0.000341797,2.40123,-0.0256091
3.35395,3.3543,0.930611,0.95622,100.613,NaN,0.0203108,0.0209404,NaN,NaN,-0.000341797,2.42369,-0.0256091
3.36333,3.36367,0.904001,0.92961,100.913,NaN,0.0200197,0.0208258,NaN,NaN,-0.000341797,2.45967,-0.0256091
3.37324,3.37358,0.863897,0.889506,101.213,NaN,0.0196646,0.0203984,NaN,NaN,-0.000341797,2.50969,-0.0256091
3.37993,3.38027,0.08778,0.113389,101.418,NaN,0.0188015,0.0200098,NaN,NaN,-0.000341797,3.29249,-0.0256091