File: Raw_Data./Tensile Nozzle 0.4 mm/45 Degrees/LH0.1_45D_N0.4/Test 4.csv
Crosshead ,Load ,Time ,Strain 1 ,Strain 2
0.007373047,-0.00306048,0.113,2.39E-05,-6.23E-05
0.0139648,-0.001703886,0.213,-9.48E-06,-2.58E-05
0.0203613,0.006660781,0.313,-9.48E-06,-6.42E-05
0.0271484,0.00810801,0.413,3.10E-05,-4.42E-05
0.0343262,0.014218,0.513,7.33E-05,-5.71E-05
0.0423828,0.02076516,0.613,0.000155747,-7.14E-05
0.0510742,0.0257568,0.713,0.000233497,-0.000129289
0.0600586,0.0335414,0.813,0.000326214,-0.000161586
0.0682617,0.03865242,0.913,0.000421142,-0.000196429
0.0768066,0.0474366,1.013,0.000495131,-0.000250792
0.0858398,0.0518516,1.113,0.000495131,-0.000358475
0.0949707,0.0584105,1.213,0.000584016,-0.000323079
0.103467,0.0643275,1.313,0.000604304,-0.000319008
0.111963,0.0691916,1.413,0.000729305,-0.000332702
0.12085,0.0744517,1.513,0.000790114,-0.00032191
0.129785,0.0831618,1.613,0.000941972,-0.000320825
0.138623,0.0899276,1.713,0.0010043,-0.000376574
0.147021,0.0950518,1.813,0.00113119,-0.000366076
0.155811,0.0999259,1.913,0.00131026,-0.000407045
0.164502,0.107644,2.013,0.00131026,-0.000409336
0.173389,0.113903,2.113,0.0014983,-0.000460181
0.181885,0.117358,2.213,0.00156787,-0.000508692
0.190576,0.123422,2.313,0.00181254,-0.000626087
0.19873,0.131377,2.413,0.00181254,-0.000603934
0.207227,0.13847,2.513,0.00189986,-0.000650208
0.215771,0.142307,2.613,0.00198777,-0.000668969
0.224316,0.14588,2.713,0.00198777,-0.000669968
0.232422,0.154511,2.813,0.00212827,-0.000752574
0.240674,0.157635,2.913,0.00212827,-0.000830745
0.249316,0.163309,3.013,0.00225926,-0.000875717
0.25835,0.173172,3.113,0.00225926,-0.000876755
0.266309,0.17603,3.213,0.00230943,-0.000890673
0.274561,0.183148,3.313,0.00241981,-0.000870807
0.282959,0.187224,3.413,0.00244764,-0.000870807
0.291992,0.193847,3.513,0.00261704,-0.000860093
0.300195,0.198931,3.613,0.00273118,-0.000893248
0.308398,0.204378,3.713,0.00285776,-0.000915528
0.316602,0.209653,3.813,0.00285776,-0.000916192
0.325586,0.213642,3.913,0.00301599,-0.00101598
0.334082,0.219407,4.013,0.00307414,-0.00103358
0.342236,0.228359,4.113,0.00313455,-0.0010769
0.350488,0.22875,4.213,0.00336157,-0.00117241
0.358984,0.236986,4.313,0.0033983,-0.00115814
0.367236,0.244219,4.413,0.00342927,-0.00117732
0.375635,0.24806,4.513,0.00352368,-0.00119254
0.383789,0.249563,4.613,0.00361904,-0.00127744
0.392285,0.257293,4.713,0.0037028,-0.00132286
0.400244,0.26411,4.813,0.00375586,-0.00128995
0.408691,0.265935,4.913,0.00387491,-0.00135352
0.417334,0.269798,5.013,0.00401447,-0.0014579
0.425732,0.278912,5.113,0.00407591,-0.00139051
0.433691,0.281581,5.213,0.00417016,-0.00145795
0.441895,0.286781,5.313,0.00421418,-0.00153443
0.450439,0.290568,5.413,0.00443982,-0.00153443
0.459229,0.297059,5.513,0.00443982,-0.00156881
0.46709,0.302295,5.613,0.00456279,-0.00158582
0.475244,0.306894,5.713,0.00465769,-0.00141781
0.48374,0.313664,5.813,0.00476034,-0.00147026
0.492871,0.315081,5.913,0.00476034,-0.00151112
0.501025,0.321184,6.013,0.00487041,-0.00155361
0.509082,0.324883,6.113,0.00493863,-0.00161658
0.517334,0.328846,6.213,0.00497159,-0.00163738
0.526123,0.333215,6.313,0.00503814,-0.00169195
0.534473,0.334766,6.413,0.00507542,-0.00175707
0.542529,0.342896,6.513,0.00526982,-0.00184456
0.550732,0.345608,6.613,0.00526982,-0.00176995
0.559229,0.350428,6.713,0.00538774,-0.00189845
0.567578,0.358322,6.813,0.00552458,-0.00187724
0.576074,0.359319,6.913,0.00559635,-0.00191683
0.584375,0.365962,7.013,0.00573933,-0.00197315
0.592871,0.368949,7.113,0.00581982,-0.00201214
0.600879,0.374248,7.213,0.00598654,-0.00209609
0.609277,0.37577,7.313,0.00606583,-0.00207684
0.617773,0.380229,7.413,0.00608993,-0.0020934
0.626172,0.383731,7.513,0.00631082,-0.00216956
0.634082,0.389571,7.613,0.00631082,-0.00210493
0.642383,0.39151,7.713,0.00642568,-0.00207248
0.651025,0.399117,7.813,0.00646159,-0.00210159
0.659766,0.405701,7.913,0.00655399,-0.00215009
0.667578,0.410681,8.013,0.00659967,-0.00220932
0.675684,0.410338,8.113,0.00665526,-0.00226418
0.684082,0.415429,8.213,0.00675859,-0.00224486
0.69292,0.419408,8.313,0.00688757,-0.00230049
0.700879,0.420337,8.413,0.00698378,-0.00232711
0.708789,0.428414,8.513,0.0070181,-0.00238226
0.716895,0.432136,8.613,0.00717853,-0.00240243
0.725732,0.433872,8.713,0.00723025,-0.0024783
0.734131,0.441216,8.813,0.00732559,-0.0025037
0.742236,0.439837,8.913,0.00740166,-0.00250669
0.750488,0.44674,9.013,0.00750877,-0.00255371
0.758984,0.4511,9.113,0.00759457,-0.00254049
0.767285,0.456823,9.213,0.00763466,-0.00259377
0.775684,0.460525,9.313,0.00771672,-0.0026402
0.783887,0.461041,9.413,0.00778188,-0.0027155
0.792383,0.469267,9.513,0.00778188,-0.00274788
0.800439,0.470404,9.613,0.00794632,-0.00272578
0.808936,0.472935,9.713,0.00801056,-0.00267465
0.817676,0.4783,9.813,0.00822529,-0.00263523
0.826172,0.484209,9.913,0.00832347,-0.00263141
0.834131,0.485932,10.013,0.00843739,-0.00269717
0.842383,0.490563,10.113,0.00859104,-0.00274705
0.850977,0.489981,10.213,0.00866777,-0.00279433
0.859717,0.500693,10.313,0.00883154,-0.002773
0.86748,0.503684,10.413,0.00894413,-0.0028315
0.875537,0.504893,10.513,0.00906812,-0.0028442
0.883984,0.510025,10.613,0.00906812,-0.00280252
0.89292,0.511621,10.713,0.00912486,-0.00286627
0.900977,0.512952,10.813,0.00927754,-0.00289068
0.909033,0.521449,10.913,0.00927754,-0.00305228
0.917236,0.520471,11.013,0.00932806,-0.00302731
0.925977,0.524317,11.113,0.0094257,-0.0030887
0.934326,0.528436,11.213,0.00950988,-0.00312048
0.942334,0.53175,11.313,0.00952215,-0.00320112
0.950488,0.536854,11.413,0.00967329,-0.00318618
0.959033,0.541029,11.513,0.00977841,-0.0032003
0.967432,0.544219,11.613,0.00982232,-0.00320518
0.975928,0.546472,11.713,0.00988021,-0.00323699
0.984229,0.550738,11.813,0.0099371,-0.00324736
0.992773,0.55453,11.913,0.0101458,-0.00325198
1.00083,0.557768,12.013,0.0101817,-0.00331686
1.00928,0.559793,12.113,0.0102966,-0.00328967
1.01782,0.566689,12.213,0.0103722,-0.00328357
1.02617,0.568633,12.313,0.0104321,-0.00335597
1.03408,0.568328,12.413,0.0105778,-0.00333822
1.04229,0.573748,12.513,0.0106553,-0.00335019
1.05098,0.580141,12.613,0.010717,-0.00344519
1.05967,0.580925,12.713,0.0108616,-0.00346153
1.06753,0.583508,12.813,0.0109525,-0.00351192
1.07568,0.58469,12.913,0.0110442,-0.00353814
1.08403,0.589518,13.013,0.0110442,-0.00355348
1.09297,0.591027,13.113,0.0112955,-0.00354212
1.10098,0.594804,13.213,0.0112955,-0.00363532
1.10903,0.600232,13.313,0.0114033,-0.00368992
1.11714,0.604578,13.413,0.0114796,-0.00369091
1.12598,0.607075,13.513,0.0115519,-0.00368327
1.13437,0.610433,13.613,0.0117799,-0.00368334
1.14248,0.611954,13.713,0.0117799,-0.00376166
1.15078,0.615521,13.813,0.0119412,-0.00379997
1.15937,0.619158,13.913,0.0119746,-0.00374988
1.16768,0.62128,14.013,0.0120462,-0.00375974
1.17612,0.62581,14.113,0.0120462,-0.00379875
1.18433,0.626335,14.213,0.0121801,-0.00380612
1.19282,0.627472,14.313,0.0121801,-0.00385718
1.20088,0.631981,14.413,0.0122805,-0.00388747
1.20933,0.636169,14.513,0.0123121,-0.0038966
1.21792,0.64169,14.613,0.0124389,-0.00393476
1.22627,0.642342,14.713,0.0124974,-0.00400429
1.23423,0.645665,14.813,0.012578,-0.00399674
1.24248,0.647949,14.913,0.0128405,-0.00399332
1.25112,0.650063,15.013,0.0129357,-0.00404853
1.25972,0.657027,15.113,0.0129357,-0.00410248
1.26758,0.656207,15.213,0.0130865,-0.0041487
1.27563,0.658433,15.313,0.0132445,-0.00416175
1.28408,0.661315,15.413,0.0133913,-0.00422296
1.29307,0.667874,15.513,0.0133913,-0.00422123
1.30107,0.666621,15.613,0.0135486,-0.00429757
1.30908,0.672037,15.713,0.0135652,-0.00428322
1.31729,0.670529,15.813,0.0137156,-0.00430234
1.32607,0.679547,15.913,0.0137286,-0.0043402
1.33447,0.678589,16.013,0.0138308,-0.00430253
1.34253,0.681914,16.113,0.0139212,-0.00431972
1.35073,0.682759,16.213,0.0139212,-0.00432888
1.35923,0.688329,16.313,0.0141603,-0.0043496
1.36753,0.690758,16.413,0.0142077,-0.00441543
1.37593,0.696457,16.513,0.0142077,-0.00442407
1.38408,0.693776,16.613,0.0143666,-0.00449198
1.39253,0.697145,16.713,0.0144312,-0.00448018
1.40049,0.698011,16.813,0.0145516,-0.00448873
1.40884,0.701236,16.913,0.0146223,-0.00447652
1.41729,0.705083,17.013,0.0146857,-0.00456777
1.42568,0.709528,17.113,0.0148265,-0.00453491
1.43364,0.7112948,17.213,0.0148932,-0.0046039
1.44189,0.712072,17.313,0.0149439,-0.0046278
1.45059,0.714115,17.413,0.015037,-0.00461366
1.45938,0.715015,17.513,0.0151237,-0.00466003
1.46724,0.719934,17.613,0.0151494,-0.00472452
1.47534,0.721509,17.713,0.0152827,-0.004739
1.48374,0.724077,17.813,0.0154574,-0.00476463
1.49272,0.728456,17.913,0.0155102,-0.0047943
1.50078,0.730748,18.013,0.0155865,-0.00475684
1.50884,0.728585,18.113,0.0156743,-0.0047149
1.51709,0.733251,18.213,0.0158848,-0.004739
1.52603,0.732323,18.313,0.0160382,-0.00478802
1.53447,0.739226,18.413,0.0162006,-0.00483678
1.54263,0.740063,18.513,0.0163038,-0.00483703
1.55083,0.745309,18.613,0.0163038,-0.00493594
1.55928,0.745374,18.713,0.0164286,-0.00490164
1.56753,0.745067,18.813,0.0164286,-0.00498987
1.57588,0.751541,18.913,0.0165897,-0.00499469
1.58403,0.752765,19.013,0.0166256,-0.00509015
1.59248,0.753351,19.113,0.0166951,-0.00507184
1.60049,0.757433,19.213,0.0167489,-0.00513618
1.60898,0.756283,19.313,0.0167779,-0.0052301
1.61763,0.759227,19.413,0.0168849,-0.00523124
1.62607,0.763749,19.513,0.0169103,-0.00520668
1.63398,0.765112,19.613,0.0170867,-0.00527677
1.64214,0.766935,19.713,0.0171204,-0.00534411
1.65063,0.770217,19.813,0.0173278,-0.0053371
1.65938,0.76908,19.913,0.0174051,-0.00537821
1.66729,0.772557,20.013,0.0175604,-0.00525506
1.67544,0.773486,20.113,0.0176312,-0.00526605
1.68394,0.779282,20.213,0.0176755,-0.00527374
1.69297,0.777818,20.313,0.0178093,-0.00530887
1.70107,0.780646,20.413,0.0178525,-0.00536162
1.70913,0.7844,20.513,0.0180204,-0.00537973
1.71733,0.784557,20.613,0.0181556,-0.00543762
1.72603,0.783367,20.713,0.0181556,-0.00549544
1.73428,0.784782,20.813,0.0183063,-0.00551911
1.74224,0.790445,20.913,0.0184401,-0.00556294
1.75044,0.788961,21.013,0.0185113,-0.00563389
1.75894,0.793741,21.113,0.0186013,-0.0056917
1.76729,0.793206,21.213,0.0188005,-0.00572588
1.77578,0.796475,21.313,0.0189149,-0.00572467
1.78403,0.79572,21.413,0.0190637,-0.00579439
1.79253,0.800221,21.513,0.019207,-0.00585754
1.80054,0.801628,21.613,0.0192694,-0.00581781
1.80894,0.800951,21.713,0.0194354,-0.00581901
1.81743,0.803273,21.813,0.019544,-0.00588668
1.82588,0.805439,21.913,0.0195493,-0.00592369
1.83384,0.806611,22.013,0.0196702,-0.00589219
1.84214,0.809495,22.113,0.0196702,-0.00593657
1.85088,0.809873,22.213,0.0197836,-0.00589829
1.85972,0.813068,22.313,0.019835,-0.00596446
1.86758,0.814037,22.413,0.0199779,-0.00592972
1.87568,0.814328,22.513,0.0199779,-0.00601409
1.88403,0.814766,22.613,0.0202127,-0.00611128
1.89287,0.818438,22.713,0.0202127,-0.00615048
1.90083,0.820561,22.813,0.0203315,-0.00618012
1.90884,0.818965,22.913,0.0204436,-0.00618526
1.91699,0.821564,23.013,0.020573,-0.00615216
1.92578,0.819604,23.113,0.0207203,-0.00628445
1.93418,0.822918,23.213,0.0208912,-0.00631824
1.94233,0.824573,23.313,0.0209623,-0.00633837
1.95059,0.82499,23.413,0.0211906,-0.00638113
1.95913,0.825044,23.513,0.0211906,-0.00641763
1.96743,0.826712,23.613,0.0213449,-0.00644654
1.97578,0.825722,23.713,0.0213449,-0.00644032
1.98398,0.827818,23.813,0.0215277,-0.00656839
1.99248,0.830332,23.913,0.0215995,-0.00655899
2.00054,0.829642,24.013,0.0218681,-0.00662137
2.00908,0.832489,24.113,0.0218681,-0.00669872
2.01772,0.830013,24.213,0.0219296,-0.00664568
2.02617,0.832429,24.313,0.0221033,-0.00668209
2.03413,0.833738,24.413,0.0222904,-0.00658365
2.04243,0.832993,24.513,0.0224385,-0.00662632
2.05103,0.833937,24.613,0.0225102,-0.00667281
2.05962,0.833862,24.713,0.0227459,-0.0067435
2.06733,0.836711,24.813,0.0227459,-0.00673247
2.07539,0.835017,24.913,0.0228699,-0.00685387
2.08379,0.835943,25.013,0.0229875,-0.00682549
2.09282,0.836861,25.113,0.0230243,-0.00684068
2.10093,0.838167,25.213,0.0231624,-0.00697273
2.10903,0.836604,25.313,0.0232337,-0.00696757
2.11724,0.843085,25.413,0.0234025,-0.00706451
2.12607,0.839807,25.513,0.0234025,-0.00706765
2.13442,0.840187,25.613,0.0235295,-0.00712468
2.14248,0.840677,25.713,0.0237185,-0.00718668
2.15073,0.844884,25.813,0.0237185,-0.00716507
2.15918,0.840962,25.913,0.0240642,-0.00721084
2.16753,0.843291,26.013,0.0240642,-0.00729488
2.17603,0.842858,26.113,0.0243619,-0.00732851
2.18428,0.842156,26.213,0.0243619,-0.00731851
2.19277,0.844699,26.313,0.0244336,-0.00738742
2.20078,0.843611,26.413,0.0246444,-0.00736577
2.20923,0.843365,26.513,0.0246916,-0.00741987
2.21768,0.844585,26.613,0.0248523,-0.00748105
2.22607,0.845759,26.713,0.0250232,-0.00738455
2.23394,0.842608,26.813,0.0251825,-0.00748821
2.24214,0.843355,26.913,0.0252433,-0.00745833
2.25068,0.846695,27.013,0.0253229,-0.00753996
2.25947,0.843113,27.113,0.0255162,-0.0075984
2.26729,0.845811,27.213,0.0255942,-0.00757071
2.27539,0.84585,27.313,0.0257417,-0.00762933
2.28379,0.844894,27.413,0.0259261,-0.00769822
2.29277,0.847464,27.513,0.0261162,-0.00771272
2.30078,0.846133,27.613,0.0262119,-0.00770578
2.30879,0.843068,27.713,0.0262894,-0.00781663
2.31699,0.843066,27.813,0.0265514,-0.00785954
2.32583,0.846037,27.913,0.0265514,-0.00785954
2.33428,0.842853,28.013,0.0267999,-0.00794845
2.34248,0.845941,28.113,0.0268652,-0.00790095
2.35073,0.845418,28.213,0.027094,-0.00802445
2.35923,0.843591,28.313,0.0272028,-0.00803036
2.36758,0.842298,28.413,0.0272701,-0.00809836
2.37603,0.843679,28.513,0.0274526,-0.00814423
2.38423,0.843716,28.613,0.0275776,-0.00817231
2.39268,0.842028,28.713,0.027723,-0.00821388
2.40068,0.843366,28.813,0.0277326,-0.00819197
2.40913,0.841388,28.913,0.0279988,-0.00824251
2.41772,0.843237,29.013,0.0280961,-0.00827891
2.42612,0.846196,29.113,0.0282162,-0.00830005
2.43408,0.842572,29.213,0.0283944,-0.00825243
2.44229,0.841353,29.313,0.0285557,-0.00831288
2.45088,0.843003,29.413,0.0287774,-0.00835427
2.45957,0.842337,29.513,0.0288337,-0.00840348
2.46743,0.842412,29.613,0.0290615,-0.00847637
2.47554,0.840132,29.713,0.0291737,-0.008487
2.48398,0.842752,29.813,0.0292143,-0.00856274
2.49292,0.842574,29.913,0.0293914,-0.0085045
2.50098,0.841347,30.013,0.0295563,-0.00859225
2.50903,0.840232,30.113,0.0297512,-0.00864681
2.51719,0.843241,30.213,0.0297754,-0.00864932
2.52598,0.839937,30.313,0.0300204,-0.00864162
2.53433,0.840604,30.413,0.0301746,-0.00868008
2.54238,0.838653,30.513,0.0302481,-0.00872925
2.55059,0.840559,30.613,0.0304097,-0.00875067
2.55913,0.837042,30.713,0.0305351,-0.00880147
2.56743,0.8377,30.813,0.030833,-0.0088528
2.57588,0.839409,30.913,0.0309439,-0.00886906
2.58403,0.838976,31.013,0.0311471,-0.0089595
2.59248,0.838278,31.113,0.031298,-0.00899916
2.60049,0.839593,31.213,0.031449,-0.00904566
2.60889,0.838766,31.313,0.0316008,-0.00903231
2.61743,0.835509,31.413,0.0316885,-0.00904019
2.62583,0.836761,31.513,0.0319717,-0.00902142
2.63379,0.838302,31.613,0.0320359,-0.00910007
2.64209,0.834514,31.713,0.0322354,-0.00914272
2.65083,0.834046,31.813,0.0323935,-0.00916906
2.65967,0.834942,31.913,0.032509,-0.00916358
2.66753,0.834108,32.013,0.0326497,-0.00918245
2.67568,0.833688,32.113,0.03276,-0.00920454
2.68413,0.833927,32.213,0.0330594,-0.00928481
2.69312,0.836103,32.313,0.0331529,-0.00926727
2.70117,0.835366,32.413,0.0333792,-0.00934774
2.70928,0.832871,32.513,0.0335168,-0.00931214
2.71753,0.831674,32.613,0.0337059,-0.00932447
2.72637,0.831418,32.713,0.0338393,-0.00937089
2.73477,0.831234,32.813,0.0339328,-0.00939105
2.74292,0.829115,32.913,0.0342478,-0.00946007
2.75112,0.830782,33.013,0.0343827,-0.00948023
2.75952,0.829148,33.113,0.0344767,-0.00957223
2.76777,0.829156,33.213,0.0346252,-0.00952129
2.77612,0.831671,33.313,0.0347946,-0.00957391
2.78428,0.830817,33.413,0.0349681,-0.00964188
2.79272,0.82772,33.513,0.0350328,-0.00969396
2.80078,0.828033,33.613,0.0352937,-0.0097097
2.80928,0.827906,33.713,0.0353815,-0.00968676
2.81792,0.828422,33.813,0.0355398,-0.00975192
2.82637,0.82838,33.913,0.0356694,-0.00979568
2.83428,0.829768,34.013,0.0357697,-0.00989247
2.84253,0.824937,34.113,0.0360682,-0.00992835
2.85112,0.826695,34.213,0.0362111,-0.00993078
2.85977,0.82429,34.313,0.0363426,-0.00995644
2.86753,0.825031,34.413,0.0365548,-0.00998669
2.87563,0.824487,34.513,0.0368042,-0.0100651
2.88413,0.824694,34.613,0.0367935,-0.010068
2.89316,0.825349,34.713,0.0368859,-0.0101424
2.90127,0.822584,34.813,0.0372327,-0.0101338
2.90928,0.824311,34.913,0.0373638,-0.0101954
2.91748,0.823722,35.013,0.0375088,-0.010245
2.92617,0.822894,35.113,0.0376139,-0.0102418
2.93447,0.823069,35.213,0.0378447,-0.0102933
2.94253,0.819733,35.313,0.0379142,-0.0103
2.95073,0.821254,35.413,0.0380237,-0.0103479
2.95918,0.820528,35.513,0.0382574,-0.0103571
2.96753,0.821886,35.613,0.0383678,-0.0104008
2.97593,0.821172,35.713,0.0385714,-0.0104164
2.98413,0.81917,35.813,0.0386304,-0.0104546
2.99263,0.816778,35.913,0.0389827,-0.0105141
3.00063,0.817448,36.013,0.0389827,-0.0105141
3.00903,0.818613,36.113,0.0392201,-0.0105521
3.01753,0.819064,36.213,0.0394788,-0.0106339
3.02593,0.81732,36.313,0.0396253,-0.0106488
3.03394,0.819368,36.413,0.0399251,-0.0106767
3.04224,0.815909,36.513,0.0400111,-0.0106881
3.05088,0.815483,36.613,0.0401938,-0.0107895
3.05972,0.816875,36.713,0.040302,-0.0108162
3.06763,0.818299,36.813,0.0403802,-0.0108885
3.07578,0.814812,36.913,0.0405294,-0.01094
3.08423,0.812672,37.013,0.0406979,-0.0109147
3.09316,0.815305,37.113,0.0408786,-0.0110089
3.10112,0.815512,37.213,0.0409067,-0.0110299
3.10913,0.815519,37.313,0.0412878,-0.0110441
3.11738,0.813861,37.413,0.041368,-0.0110705
3.12622,0.812685,37.513,0.0415133,-0.0111263
3.13467,0.812084,37.613,0.0417293,-0.0111946
3.14282,0.812886,37.713,0.0419385,-0.0112656
3.15107,0.811029,37.813,0.0420974,-0.0112811
3.15947,0.812287,37.913,0.0421798,-0.0113749
3.16772,0.810102,38.013,0.0423428,-0.0113942
3.17607,0.811187,38.113,0.0427586,-0.0114507
3.18423,0.813774,38.213,0.0428453,-0.0115137
3.19268,0.810272,38.313,0.0429762,-0.0114812
3.20063,0.810819,38.413,0.0431129,-0.0115701
3.20908,0.809837,38.513,0.0432886,-0.0116021
3.21772,0.807896,38.613,0.0433342,-0.0116723
3.22617,0.808841,38.713,0.043483,-0.0116616
3.23413,0.806834,38.813,0.043646,-0.0117169
3.24233,0.806922,38.913,0.0437572,-0.0118285
3.25083,0.804589,39.013,0.0439761,-0.011742
3.25947,0.802607,39.113,0.044059,-0.0117614
3.26724,0.802613,39.213,0.0443889,-0.0118646
3.27524,0.796821,39.313,0.0444203,-0.0118921
3.28037,-0.0827066,39.374,0.0444711,-0.011938